sub,trial,block,offer,partner_name,partner_id,choice,choice_RT,EP_RT,EP_X1,EP_Y1,feedback_RT,feedback_X1,feedback_Y1,RP,RP_RT,condition
1,1,re,85,zach,118,0,8.034,6.293,-1,2,6.022,-157,-137,0.25,11.542,re_r_order
1,2,re,50,cody,117,0,5.083,6.301,4,1,7.811,236,56,0.35,6.4,re_r_order
1,3,re,75,samuel,57,0,7.614,5.499,3,3,9.046,-1,2,0.1,4.019,re_r_order
1,4,re,85,matt,137,1,5.251,3.334,3,-3,6.805,-99,-229,0.15,3.916,re_r_order
1,5,re,55,kevin,127,0,5.217,5.489,2,0,4.767,207,67,0.2,3.844,re_r_order
1,6,re,95,dylan,143,1,3.863,4.23,-1,3,5.542,-228,-241,0.3,4.849,re_r_order
1,7,re,65,daniel,96,0,2.39,6.139,3,1,7.351,69,1,0.25,5.483,re_r_order
1,8,re,65,ryan,77,0,2.288,4.63,3,2,5.628,55,0,0.45,2.973,re_r_order
1,9,re,75,andre,111,0,2.212,4.121,3,1,13.177,1,0,0.2,6.816,re_r_order
1,10,re,80,ben,136,1,5.107,3.9,0,-1,7.322,2,-36,0.2,2.552,re_r_order
1,11,re,95,nichola,6,1,3.432,4.998,-2,1,8.422,-231,-204,0.35,4.15,re_r_order
1,12,re,90,chris,88,1,2.545,3.823,-1,1,4.274,-228,-191,0.25,4.523,re_r_order
1,13,re,50,aaron,21,0,2.93,3.516,-1,1,7.623,232,142,0.15,6.525,re_r_order
1,14,re,70,jordan,86,0,1.863,5.506,1,0,5.618,49,-1,0.3,3.388,re_r_order
1,15,re,90,austin,65,1,3.654,4.735,0,1,7.05,-242,-199,0.25,3.657,re_r_order
1,16,re,60,jacob,131,0,3.373,5.112,1,1,6.455,188,66,0.15,4.232,re_r_order
1,17,re,60,eric,1,0,3.676,5.155,2,0,4.36,179,66,0.3,4.46,re_r_order
1,18,re,70,justi,155,0,3.106,6.407,2,-2,5.117,2,1,0.05,3.62,re_r_order
1,19,re,80,brando,60,1,3.669,4.591,1,-1,6.661,-21,-27,0.4,4.144,re_r_order
1,20,re,55,john,102,0,2.886,5.55,1,0,4.641,207,32,0.4,5.101,re_r_order
2,1,re,50,cody,117,0,6.209,6.11,-122,-122,9.284,237,-1,0.1,5.587,re_r_order
2,2,re,65,ryan,77,0,3.932,8.864,1,0,11.816,-1,1,0.25,13.141,re_r_order
2,3,re,70,jordan,86,0,2.852,5.458,-87,-243,7.887,-63,-236,0.05,6.549,re_r_order
2,4,re,95,nichola,6,0,24.743,3.471,2,4,4.509,-243,-245,0.2,4.294,re_r_order
2,5,re,70,justi,155,0,2.652,5.285,1,-247,6.619,116,74,0.05,6.741,re_r_order
2,6,re,85,matt,137,0,2.674,3.595,-232,-10,5.785,-240,-240,0.05,2.708,re_r_order
2,7,re,50,aaron,21,0,3.238,3.117,237,2,3.536,237,235,0.5,6.451,re_r_order
2,8,re,55,kevin,127,0,4.176,3.29,-240,-248,3.469,244,246,0.05,4.778,re_r_order
2,9,re,85,zach,118,0,2.111,2.93,-75,6,3.677,-229,-242,0.15,8.855,re_r_order
2,10,re,80,brando,60,0,2.935,28.887,76,135,6.632,-219,-22,0.35,7.992,re_r_order
2,11,re,75,samuel,57,0,3.346,5.721,-218,-233,3.698,-236,-244,0.1,2.385,re_r_order
2,12,re,60,eric,1,0,10.215,6.976,-2,-3,2.851,89,-9,0.25,15.824,re_r_order
2,13,re,60,jacob,131,0,7.65,7.301,-84,-152,4.008,207,199,0.1,39.955,re_r_order
2,14,re,75,andre,111,0,3.283,4.534,-243,-242,3.675,5,-4,0,6.876,re_r_order
2,15,re,80,ben,136,0,2.673,3.638,104,102,6.565,0,3,0.25,6.089,re_r_order
2,16,re,65,daniel,96,0,3.24,2.308,-111,-51,2.918,-158,-79,0.1,2.458,re_r_order
2,17,re,95,dylan,143,0,4.477,5.218,-224,-225,3.992,-245,-245,0.05,3.728,re_r_order
2,18,re,90,austin,65,0,3.819,3.081,83,5,4.915,-184,-76,0.25,9.239,re_r_order
2,19,re,55,john,102,0,3.099,3.138,125,43,3.376,205,172,0.4,3.2,re_r_order
2,20,re,90,chris,88,0,2.333,3.833,-104,-142,3.472,-231,-248,0.15,5.227,re_r_order
3,1,re,80,brando,60,0,4.638,6.695,159,-113,6.112,-100,-144,0.4,11.902,re_r_order
3,2,re,85,zach,118,1,8.289,7.54,124,-127,9.306,-140,-152,0.35,7.396,re_r_order
3,3,re,70,jordan,86,0,5.064,6.901,38,-199,8.528,166,-11,0.25,5.587,re_r_order
3,4,re,85,matt,137,1,3.718,7.147,0,-111,5.61,-88,-93,0.15,4.818,re_r_order
3,5,re,65,daniel,96,0,8.678,5.895,46,-141,7.006,118,53,0.2,4.584,re_r_order
3,6,re,55,kevin,127,0,3.483,5.827,96,-84,6.782,141,150,0.2,5.295,re_r_order
3,7,re,90,chris,88,1,2.561,7.608,134,-136,3.493,-81,-120,0.2,5.964,re_r_order
3,8,re,50,aaron,21,0,2.774,5.027,70,-172,3.386,160,161,0.25,11.624,re_r_order
3,9,re,95,dylan,143,1,2.752,7.211,0,-66,3.438,-134,-162,0.15,4.823,re_r_order
3,10,re,80,ben,136,0,7.398,3.999,94,-77,4.673,-6,-24,0.3,4.148,re_r_order
3,11,re,70,justi,155,0,2.629,6.55,-2,-62,4.373,144,-43,0.2,5.952,re_r_order
3,12,re,90,austin,65,1,2.673,4.047,17,-26,2.911,-136,-132,0.15,16.391,re_r_order
3,13,re,75,andre,111,0,1.92,8.106,-50,-81,4.446,60,-71,0.1,130.338,re_r_order
3,14,re,50,cody,117,0,3.659,3.823,56,-72,3.721,93,91,0.3,4.923,re_r_order
3,15,re,60,jacob,131,0,2.586,2.997,1,-41,4.728,109,2,0.2,6.188,re_r_order
3,16,re,55,john,102,0,2.664,8.548,106,-54,6.953,124,23,0.15,13.196,re_r_order
3,17,re,95,nichola,6,1,3.014,2.061,-90,-76,3.407,-116,-104,0.1,4.753,re_r_order
3,18,re,65,ryan,77,0,3.389,2.767,2,-125,3.64,57,-100,0.2,20.225,re_r_order
3,19,re,60,eric,1,0,2.749,6.27,-10,-133,5.24,132,15,0.15,3.905,re_r_order
3,20,re,75,samuel,57,0,2.103,3.153,58,-75,4.659,42,-74,0.2,4.871,re_r_order
4,1,re,80,ben,136,0,2.986,12.185,40,0,6.323,-105,-1,0.5,16.024,re_r_order
4,2,re,95,dylan,143,0,3.038,7.538,24,-2,5.278,-186,0,0.5,3.042,re_r_order
4,3,re,90,austin,65,0,2.74,7.784,41,-1,7.967,-179,0,0.5,3.118,re_r_order
4,4,re,65,ryan,77,0,2.464,6.781,48,1,6.25,-27,1,0.5,3.222,re_r_order
4,5,re,55,john,102,0,3.12,15.425,43,3,7.523,-11,-1,0.5,4.046,re_r_order
4,6,re,85,zach,118,0,4.599,6.795,30,0,7.367,-145,0,0.5,7.229,re_r_order
4,7,re,70,justi,155,0,2.436,6.399,35,0,5.399,-103,0,0.5,3.545,re_r_order
4,8,re,75,samuel,57,0,2.875,9.681,63,-2,4.499,-74,-2,0.5,3.675,re_r_order
4,9,re,60,jacob,131,0,2.901,4.437,37,-1,5.831,-32,-1,0.5,4.544,re_r_order
4,10,re,75,andre,111,0,2.92,4.536,37,0,4.499,-81,-2,0.5,4.293,re_r_order
4,11,re,65,daniel,96,0,3.309,5.819,49,0,7.394,-75,0,0.5,3.603,re_r_order
4,12,re,50,cody,117,0,2.637,5.479,40,0,7.63,46,0,0.5,1.976,re_r_order
4,13,re,80,brando,60,0,3.257,6.39,48,-2,4.925,-151,-1,0.5,5.331,re_r_order
4,14,re,70,jordan,86,0,3.538,3.804,28,1,4.209,-136,-1,0.5,3.654,re_r_order
4,15,re,85,matt,137,0,5.295,4.907,44,-2,4.453,-170,-1,0.5,2.951,re_r_order
4,16,re,50,aaron,21,0,2.458,4.668,34,2,5.201,42,3,0.5,3.249,re_r_order
4,17,re,90,chris,88,0,2.509,4.592,41,0,6.16,-204,0,0.5,1.924,re_r_order
4,18,re,55,kevin,127,0,3.359,4.21,36,0,6.198,-23,-3,0.5,4.036,re_r_order
4,19,re,60,eric,1,0,2.228,5.959,43,-2,3.969,-30,0,0.5,2.393,re_r_order
4,20,re,95,nichola,6,0,2.789,3.974,40,0,5.28,-211,0,0.5,2.722,re_r_order
5,1,re,90,austin,65,1,8.074,6.231,161,133,8.335,-227,228,0.35,6.489,r_re_order
5,2,re,60,eric,1,0,2.134,4.027,148,182,3.628,70,82,0.4,3.589,r_re_order
5,3,re,75,andre,111,1,3.189,6.302,-56,59,4.358,-46,44,0.25,4.643,r_re_order
5,4,re,90,chris,88,1,2.861,3.117,133,149,5.158,-226,224,0.4,2.693,r_re_order
5,5,re,55,kevin,127,0,1.705,5.217,43,24,4.969,132,128,0.25,176.394,r_re_order
5,6,re,80,ben,136,1,3.015,2.957,96,151,4.357,-199,217,0.5,4.285,r_re_order
5,7,re,50,cody,117,0,2.226,2.265,90,139,3.141,216,220,0.5,2.897,r_re_order
5,8,re,60,jacob,131,0,1.646,4.255,-67,48,3.089,27,38,0.25,32.926,r_re_order
5,9,re,75,samuel,57,1,2.063,2.464,-110,90,6.341,-29,33,0.1,9.944,r_re_order
5,10,re,95,dylan,143,1,8.809,4.025,57,60,6.194,-230,224,0.3,8.228,r_re_order
5,11,re,85,zach,118,1,2.569,3.217,65,88,4.397,-234,224,0.3,33.147,r_re_order
5,12,re,70,jordan,86,0,2.251,20.994,51,-36,2.913,50,38,0.25,2.007,r_re_order
5,13,re,65,daniel,96,0,2.238,6.467,-42,-27,5.153,42,30,0.1,1.966,r_re_order
5,14,re,55,john,102,0,2.512,2.784,80,108,3.131,223,215,0.45,2.113,r_re_order
5,15,re,85,matt,137,1,4.075,4.402,-199,-40,5.511,-215,228,0.1,11.926,r_re_order
5,16,re,95,nichola,6,1,11.601,3.937,66,65,3.683,-219,222,0.15,6.546,r_re_order
5,17,re,50,aaron,21,0,2.127,7.636,-47,-35,2.715,217,220,0.05,4.591,r_re_order
5,18,re,70,justi,155,0,2.177,2.436,105,107,4.68,72,82,0.25,14.327,r_re_order
5,19,re,80,brando,60,1,2.899,2.31,73,72,2.278,-206,204,0.4,3.068,r_re_order
5,20,re,65,ryan,77,0,1.696,14.441,104,98,2.981,-112,116,0.45,4.226,r_re_order
6,1,re,70,justi,155,0,3.93,16.041,44,60,10.884,-102,47,0.25,4.72,r_re_order
6,2,re,60,jacob,131,0,3.695,7.202,12,83,5.941,54,92,0.35,3.574,r_re_order
6,3,re,90,austin,65,0,3.015,5.053,-68,49,5.326,-168,136,0.25,4.489,r_re_order
6,4,re,85,zach,118,0,3.762,3.976,134,114,7.342,-174,156,0.4,3.766,r_re_order
6,5,re,95,nichola,6,0,3.572,5.833,209,87,5.423,-207,196,0.5,4.597,r_re_order
6,6,re,75,andre,111,0,4.168,5.99,1,16,6.618,0,21,0.25,6.654,r_re_order
6,7,re,55,kevin,127,0,3.619,4.517,-183,38,7.543,168,70,0.15,4.907,r_re_order
6,8,re,80,ben,136,0,2.853,3.791,117,40,4.758,31,40,0.3,5.497,r_re_order
6,9,re,65,daniel,96,0,2.708,3.879,-56,22,5.249,136,45,0.1,4.564,r_re_order
6,10,re,95,dylan,143,0,3.17,3.231,-41,23,5.844,-187,160,0.1,6.475,r_re_order
6,11,re,60,eric,1,0,3.356,3.948,93,18,6.614,116,33,0.4,3.954,r_re_order
6,12,re,65,ryan,77,0,4.371,3.676,83,36,4.513,128,35,0.3,3.714,r_re_order
6,13,re,80,brando,60,0,2.69,3.402,178,37,4.258,-67,43,0.45,3.924,r_re_order
6,14,re,90,chris,88,0,2.914,3.95,220,1,5.653,-195,155,0.5,3.38,r_re_order
6,15,re,50,aaron,21,0,3.223,3.919,12,37,3.889,159,63,0.4,3.555,r_re_order
6,16,re,50,cody,117,0,4.458,3.903,-32,28,4.189,186,79,0.2,4.051,r_re_order
6,17,re,85,matt,137,0,3.114,3.408,32,19,3.486,-74,42,0.35,3.345,r_re_order
6,18,re,75,samuel,57,0,3.14,3.559,113,33,4.086,-51,45,0.4,3.701,r_re_order
6,19,re,70,jordan,86,0,3.563,4.787,-151,24,4.381,36,49,0.1,3.305,r_re_order
6,20,re,55,john,102,0,3.612,3.965,166,3,6.509,116,6,0.5,3.901,r_re_order
7,1,re,65,ryan,77,0,4.675,12.858,-215,-1,8.229,0,1,0.05,11.936,re_r_order
7,2,re,90,chris,88,0,4.863,9.939,-246,-33,6.226,-233,-1,0.05,4.491,re_r_order
7,3,re,80,brando,60,0,2.185,3.518,-227,2,5.72,-136,-1,0,7.652,re_r_order
7,4,re,95,dylan,143,1,4.869,3.355,-229,0,4.507,-244,-3,0,3.667,re_r_order
7,5,re,80,ben,136,0,2.772,6.639,-71,-2,4.159,-137,-1,0.1,6.176,re_r_order
7,6,re,90,austin,65,1,5.85,3.348,-219,-1,4.183,-216,-1,0,3.654,re_r_order
7,7,re,70,jordan,86,0,2.322,4.659,-202,0,4.493,-122,2,0,4.763,re_r_order
7,8,re,95,nichola,6,1,2.671,5.138,-156,0,3.995,-229,1,0.05,3.976,re_r_order
7,9,re,75,samuel,57,0,2.95,3.282,-220,-1,4.245,-116,1,0,4.226,re_r_order
7,10,re,60,eric,1,0,2.435,4.003,-116,2,5.034,-2,0,0.1,4.042,re_r_order
7,11,re,85,zach,118,0,2.583,3.866,-113,0,3.511,-145,1,0.1,5.264,re_r_order
7,12,re,55,kevin,127,0,3.265,5.565,-237,1,5.023,1,-3,0,3.258,re_r_order
7,13,re,65,daniel,96,0,2.939,3.846,-206,-2,4.291,-112,1,0.05,3.821,re_r_order
7,14,re,50,aaron,21,0,2.259,3.861,-187,1,5.04,24,2,0,3.806,re_r_order
7,15,re,75,andre,111,0,2.481,3.685,-148,-3,3.9,-119,3,0.05,5.087,re_r_order
7,16,re,60,jacob,131,0,2.676,3.566,-68,-2,3.57,0,-4,0.05,2.973,re_r_order
7,17,re,50,cody,117,0,3.67,4.257,-242,-1,4.573,22,-2,0,3.747,re_r_order
7,18,re,85,matt,137,0,4.148,4.646,-249,-1,3.23,-161,-2,0,3.767,re_r_order
7,19,re,70,justi,155,0,2.538,5.095,-203,-2,4.298,-106,3,0,3.71,re_r_order
7,20,re,55,john,102,0,2.469,5.287,-159,-3,4.137,-236,-1,0,6.304,re_r_order
8,1,re,90,chris,88,0,347.308,14.852,-79,217,7.962,-49,228,0.2,6.794,r_re_order
8,2,re,90,austin,65,0,3.314,15.769,-33,209,11.89,-191,216,0.2,8.205,r_re_order
8,3,re,65,ryan,77,0,3.378,5.199,87,215,8.04,149,223,0.3,29.384,r_re_order
8,4,re,60,jacob,131,0,2.419,7.01,-127,214,9.074,192,227,0.15,4.76,r_re_order
8,5,re,70,jordan,86,0,3.46,6.207,84,217,6.462,139,225,0.25,5.199,r_re_order
8,6,re,50,cody,117,0,4.232,5.992,-65,219,9.04,244,241,0.2,4.465,r_re_order
8,7,re,55,kevin,127,0,2.279,6.34,-174,216,10.957,235,240,0.1,5.507,r_re_order
8,8,re,85,zach,118,0,3.045,5.774,117,218,9.999,-100,228,0.25,4.687,r_re_order
8,9,re,85,matt,137,0,3.656,10.945,-61,228,10.938,-192,230,0.2,5.792,r_re_order
8,10,re,80,brando,60,0,2.704,5.494,128,226,8.204,-54,226,0.3,7.829,r_re_order
8,11,re,55,john,102,0,3.768,5.109,-115,225,6.576,235,234,0.15,4.975,r_re_order
8,12,re,70,justi,155,0,2.431,4.999,-144,226,7.535,158,231,0.1,7.415,r_re_order
8,13,re,60,eric,1,0,2.591,5.027,33,226,6.441,221,235,0.2,4.561,r_re_order
8,14,re,80,ben,136,0,4.212,4.976,-92,230,10.386,45,222,0.15,7.813,r_re_order
8,15,re,75,andre,111,0,4.631,4.292,-178,221,7.325,134,226,0.05,4.358,r_re_order
8,16,re,95,dylan,143,0,2.505,6.957,-93,223,8.389,-237,237,0.15,4.818,r_re_order
8,17,re,50,aaron,21,0,4.123,6.181,79,205,7.488,246,243,0.25,10.394,r_re_order
8,18,re,65,daniel,96,0,2.761,4.949,98,222,5.5,170,234,0.3,5.554,r_re_order
8,19,re,75,samuel,57,0,3.058,6.998,-146,232,5.979,129,222,0.1,6.116,r_re_order
8,20,re,95,nichola,6,0,3.339,4.674,-124,232,5.768,-238,236,0.15,7.936,r_re_order
9,1,re,85,matt,137,1,5.341,6.286,-68,-1,7.286,-232,1,0.2,5.793,re_r_order
9,2,re,75,andre,111,1,5.03,5.267,-60,-1,5.695,-16,-1,0.25,6.769,re_r_order
9,3,re,95,nichola,6,1,3.581,3.862,-200,1,6.494,-237,0,0.1,4.735,re_r_order
9,4,re,70,jordan,86,0,3.043,4.34,-138,3,4.213,-29,-1,0.25,4.738,re_r_order
9,5,re,80,ben,136,1,4.192,3.837,110,0,4.162,-111,-2,0.4,4.63,re_r_order
9,6,re,55,kevin,127,0,3.077,3.725,18,-4,4.858,159,0,0.35,8.825,re_r_order
9,7,re,65,ryan,77,0,3.01,3.655,157,-1,4.099,16,-1,0.5,3.456,re_r_order
9,8,re,75,samuel,57,1,2.802,4.713,-115,2,3.95,-23,-2,0.1,3.064,re_r_order
9,9,re,55,john,102,0,3.585,5.719,76,0,3.211,122,0,0.4,83.367,re_r_order
9,10,re,60,eric,1,0,8.036,3.523,18,0,3.631,99,-4,0.3,3.349,re_r_order
9,11,re,70,justi,155,0,3.031,11.586,-52,-42,5.846,-33,19,0.2,3.301,re_r_order
9,12,re,50,aaron,21,0,3.18,4.7,116,141,4.962,220,201,0.5,3.507,re_r_order
9,13,re,80,brando,60,1,3.137,3.602,197,196,5.206,-166,-118,0.5,2.754,re_r_order
9,14,re,65,daniel,96,0,3.102,7.576,-136,-28,5.908,34,21,0.2,3.349,re_r_order
9,15,re,60,jacob,131,0,3.218,7.43,-117,-54,4.199,118,110,0.2,43.088,re_r_order
9,16,re,95,dylan,143,1,2.762,4.964,201,199,5.149,-214,209,0.5,48.505,re_r_order
9,17,re,50,cody,117,0,3.225,4.986,39,55,11.579,211,186,0.35,2.984,re_r_order
9,18,re,85,zach,118,1,17.417,3.787,71,73,4.62,-160,173,0.5,43.675,re_r_order
9,19,re,90,chris,88,1,3.845,11.168,120,70,63.562,-186,207,0.4,3.353,re_r_order
9,20,re,90,austin,65,1,3.149,3.759,66,82,4.543,-181,199,0.3,3.511,re_r_order
10,1,re,80,ben,136,1,2.078,4.681,9,0,4.363,-127,42,0.45,2.917,r_re_order
10,2,re,60,jacob,131,0,2.024,3.028,61,25,3.476,39,45,0.4,2.906,r_re_order
10,3,re,50,cody,117,0,2.665,2.913,6,11,3.165,231,237,0.3,2.326,r_re_order
10,4,re,80,brando,60,1,2.367,3.046,-34,21,3.172,-192,110,0.35,2.2,r_re_order
10,5,re,65,daniel,96,0,1.287,2.338,-9,7,2.366,28,-51,0.3,2.681,r_re_order
10,6,re,75,samuel,57,1,1.307,2.092,17,13,2.094,-29,-28,0.35,3.083,r_re_order
10,7,re,55,john,102,0,1.2,1.442,149,141,1.728,183,188,0.4,3.8,r_re_order
10,8,re,70,justi,155,0,2.039,2.676,-76,33,3.196,24,30,0.25,2.702,r_re_order
10,9,re,70,jordan,86,0,1.141,1.469,48,37,1.896,28,27,0.4,2.148,r_re_order
10,10,re,60,eric,1,0,2.091,1.438,74,73,1.649,92,157,0.4,2.801,r_re_order
10,11,re,50,aaron,21,0,1.674,1.456,29,15,1.537,202,236,0.35,3.212,r_re_order
10,12,re,95,dylan,143,1,2.31,2.411,14,23,3.861,-232,220,0.25,2.94,r_re_order
10,13,re,55,kevin,127,0,2.036,1.517,46,48,1.297,106,148,0.3,3.099,r_re_order
10,14,re,85,zach,118,1,2.173,1.194,39,66,1.669,-159,-106,0.4,1.9,r_re_order
10,15,re,75,andre,111,1,1.185,1.368,82,73,1.408,-99,-46,0.4,1.84,r_re_order
10,16,re,65,ryan,77,0,1.427,1.351,151,188,1.771,76,83,0.45,1.993,r_re_order
10,17,re,90,chris,88,1,0.994,1.262,161,134,1.593,-168,-163,0.4,2.843,r_re_order
10,18,re,90,austin,65,1,1.067,1.188,110,108,1.747,-199,-210,0.45,2.701,r_re_order
10,19,re,85,matt,137,1,1.549,1.822,26,13,1.473,-154,-80,0.25,2.953,r_re_order
10,20,re,95,nichola,6,1,1.476,1.124,199,204,3.181,-223,241,0.4,2.225,r_re_order
11,1,re,55,kevin,127,0,3.806,3.968,-203,-210,5.13,113,54,0.1,5.282,re_r_order
11,2,re,75,andre,111,1,3.789,4.69,-182,-205,7.837,-203,154,0.05,4.372,re_r_order
11,3,re,95,dylan,143,0,2.379,5.089,-196,-165,5.351,-238,241,0,3.6,re_r_order
11,4,re,50,aaron,21,0,2.118,3.329,-182,-194,4.006,46,176,0.05,2.82,re_r_order
11,5,re,60,jacob,131,0,2.945,2.943,-206,-202,4.71,19,-26,0,2.632,re_r_order
11,6,re,90,austin,65,1,2.226,2.933,-167,-186,3.74,-211,193,0.1,3.291,re_r_order
11,7,re,85,zach,118,1,2.364,4.481,115,-96,4.638,-208,197,0.2,2.377,re_r_order
11,8,re,65,daniel,96,0,3.188,3.554,-183,-148,3.647,-166,-59,0,2.713,re_r_order
11,9,re,65,ryan,77,0,2.261,2.843,-146,-163,4.502,-51,-39,0.1,2.83,re_r_order
11,10,re,95,nichola,6,1,2.357,5.439,-146,-128,4.141,-205,229,0,2.84,re_r_order
11,11,re,85,matt,137,1,3.444,3.639,-158,-144,3.884,-58,-42,0,6.801,re_r_order
11,12,re,50,cody,117,0,2.224,4.179,131,-27,3.709,58,150,0.25,2.72,re_r_order
11,13,re,60,eric,1,0,2.839,3.328,142,-46,3.599,18,9,0.15,2.817,re_r_order
11,14,re,55,john,102,0,2.022,3.004,59,-35,3.96,84,-17,0.25,2.978,re_r_order
11,15,re,80,brando,60,1,1.992,3.226,-72,-63,3.294,-162,117,0.1,2.892,re_r_order
11,16,re,90,chris,88,1,2.117,2.783,122,-29,3.266,-224,230,0.2,2.714,re_r_order
11,17,re,70,jordan,86,1,2.4,3.831,-143,-72,3.591,-73,-29,0,2.438,re_r_order
11,18,re,80,ben,136,1,1.946,3.857,-108,-100,3.241,-142,142,0.15,2.654,re_r_order
11,19,re,75,samuel,57,1,3.3,4.709,-115,-74,3.223,-73,52,0,2.644,re_r_order
11,20,re,70,justi,155,1,3.215,3.05,-112,-78,3.05,-48,12,0.1,5.474,re_r_order
12,1,re,70,justi,155,1,3.415,7.373,-100,-139,7.292,-57,-92,0.15,6.423,r_re_order
12,2,re,60,eric,1,0,2.316,3.409,-77,-80,3.586,47,113,0.3,2.936,r_re_order
12,3,re,65,daniel,96,0,2.52,3.262,74,116,4.787,35,22,0.45,3.16,r_re_order
12,4,re,80,brando,60,1,2.398,3.248,-1,-1,7.222,-242,-238,0.25,2.609,r_re_order
12,5,re,55,john,102,0,3.174,3.012,61,75,3.859,197,231,0.4,3.668,r_re_order
12,6,re,95,nichola,6,1,2.61,4.425,-52,-76,3.942,-238,-238,0.2,3.584,r_re_order
12,7,re,90,chris,88,1,2.471,2.424,-167,-89,3.152,-243,-236,0.25,2.767,r_re_order
12,8,re,85,matt,137,1,3.438,2.925,32,39,4.071,-209,-231,0.35,3.393,r_re_order
12,9,re,85,zach,118,1,3.056,3.736,1,3,3.054,-220,-223,0.25,3.986,r_re_order
12,10,re,55,kevin,127,0,2.463,2.918,-230,-233,3.426,159,165,0.1,3.874,r_re_order
12,11,re,95,dylan,143,1,3.016,3.768,-54,-153,3.057,-227,-240,0.2,2.472,r_re_order
12,12,re,75,samuel,57,1,2.83,3.656,-37,-226,3.911,-27,-218,0.25,2.56,r_re_order
12,13,re,80,ben,136,1,2.184,2.901,146,164,3.539,-107,-196,0.4,2.621,r_re_order
12,14,re,50,aaron,21,0,2.894,3.673,-38,-203,3.166,212,239,0.3,3.821,r_re_order
12,15,re,50,cody,117,0,3.1,3.461,177,195,3.308,220,219,0.45,3.074,r_re_order
12,16,re,90,austin,65,1,2.329,3.112,106,117,2.734,-219,-213,0.4,8.936,r_re_order
12,17,re,70,jordan,86,1,2.551,3.221,4,7,2.988,55,82,0.25,2.368,r_re_order
12,18,re,60,jacob,131,0,2.587,3.186,1,0,2.887,140,144,0.25,2.866,r_re_order
12,19,re,75,andre,111,1,1.832,2.599,68,38,3.731,1,-5,0.35,9.598,r_re_order
12,20,re,65,ryan,77,0,2.224,2.769,70,41,4.468,82,39,0.35,3.138,r_re_order
13,1,re,85,zach,118,1,2.787,4.993,-211,-20,5.461,-222,-87,0.05,7.512,re_r_order
13,2,re,95,dylan,143,1,2.325,4.212,-224,-1,4.4,-215,-151,0.1,3.296,re_r_order
13,3,re,55,kevin,127,0,2.298,2.483,-219,-28,5.629,133,34,0.1,3.411,re_r_order
13,4,re,75,andre,111,0,2.09,2.873,-212,-32,3.634,-125,-50,0.05,3.039,re_r_order
13,5,re,95,nichola,6,1,2.473,7.149,-214,-21,3.826,-239,-162,0.1,4.04,re_r_order
13,6,re,90,austin,65,1,1.701,2.932,-209,-43,2.984,-208,-83,0.1,3.968,re_r_order
13,7,re,50,aaron,21,0,2.452,2.443,-201,-60,3.405,154,91,0.1,3.299,re_r_order
13,8,re,80,ben,136,1,3.368,2.444,-128,-41,7.898,-123,-114,0.15,2.703,re_r_order
13,9,re,80,brando,60,1,2.961,3.915,-221,-3,6.737,-209,-4,0.05,2.967,re_r_order
13,10,re,70,justi,155,0,2.234,3.66,-213,-4,3.785,-190,-3,0.1,4.598,re_r_order
13,11,re,90,chris,88,1,15.778,3.525,-183,-3,2.646,-213,-1,0.1,4.071,re_r_order
13,12,re,50,cody,117,0,2.111,4.11,-185,-2,3.92,183,88,0.1,5.434,re_r_order
13,13,re,55,john,102,0,2.057,21.043,-147,2,3.089,181,95,0.15,13.52,re_r_order
13,14,re,65,daniel,96,0,1.543,5.885,-165,-1,11.009,-35,0,0.1,27.446,re_r_order
13,15,re,60,eric,1,0,4.127,6.091,-161,-5,7.657,86,24,0.1,47.39,re_r_order
13,16,re,65,ryan,77,0,1.71,2.754,-165,2,3.779,-16,5,0.05,6.823,re_r_order
13,17,re,70,jordan,86,0,2.454,2.172,-176,-2,2.997,-28,-1,0.1,2.793,re_r_order
13,18,re,85,matt,137,1,2.375,2.617,-100,-7,4.497,-159,-29,0.1,7.168,re_r_order
13,19,re,75,samuel,57,0,2.574,2.386,-170,1,2.929,-148,0,0.05,2.455,re_r_order
13,20,re,60,jacob,131,0,1.532,2.651,-161,0,4.697,106,31,0.15,39.041,re_r_order
14,1,re,95,dylan,143,1,3.111,7.079,-5,95,6.038,-214,210,0.25,9.411,re_r_order
14,2,re,75,andre,111,0,3.886,4.651,-2,35,5.154,-95,105,0.25,4.674,re_r_order
14,3,re,80,brando,60,1,2.615,2.511,-127,11,4.409,-82,9,0.1,3.621,re_r_order
14,4,re,85,zach,118,1,1.564,3.003,-138,24,3.888,-169,13,0.05,3.109,re_r_order
14,5,re,65,ryan,77,0,2.654,4.288,-86,10,4.537,110,23,0.35,3.475,re_r_order
14,6,re,95,nichola,6,1,2.294,2.442,-193,6,4.663,-209,186,0.05,4.174,re_r_order
14,7,re,60,eric,1,0,2.018,3.514,-163,-2,5.015,175,65,0.05,2.37,re_r_order
14,8,re,90,chris,88,1,2.417,2.511,-162,22,3.326,-233,1,0.05,3.077,re_r_order
14,9,re,70,justi,155,0,2.214,3.07,-123,-5,6.763,157,11,0.05,2.647,re_r_order
14,10,re,75,samuel,57,0,2.311,2.955,-240,-2,4.686,122,87,0,3.672,re_r_order
14,11,re,60,jacob,131,0,2.114,2.509,-161,37,2.917,119,9,0.05,2.464,re_r_order
14,12,re,55,john,102,0,2.925,2.54,14,14,3.086,230,2,0.3,2.702,re_r_order
14,13,re,70,jordan,86,0,2.29,3.427,14,7,2.804,180,8,0.15,2.806,re_r_order
14,14,re,80,ben,136,1,3.26,2.567,-117,-2,3.073,-121,1,0.05,2.577,re_r_order
14,15,re,90,austin,65,1,2.439,2.42,-243,2,5.075,-203,-7,0,2.894,re_r_order
14,16,re,50,cody,117,0,2.656,3.692,-229,5,3.976,222,219,0,2.593,re_r_order
14,17,re,50,aaron,21,0,2.139,2.667,-195,151,2.503,225,236,0,2.736,re_r_order
14,18,re,85,matt,137,1,2.238,2.609,-175,4,3.495,-134,-2,0.05,2.293,re_r_order
14,19,re,65,daniel,96,0,2.128,2.492,-120,36,4.239,109,60,0.1,2.511,re_r_order
14,20,re,55,kevin,127,0,2.515,3.588,-211,-55,3.473,210,206,0,2.502,re_r_order
15,1,re,95,nichola,6,0,6.07,6.365,-84,-78,4.082,-132,-118,0.2,8.467,re_r_order
15,2,re,75,samuel,57,0,3.162,2.823,-144,-158,5.118,100,162,0.1,4.482,re_r_order
15,3,re,80,ben,136,0,2.575,2.902,89,127,3.283,109,72,0.25,6.248,re_r_order
15,4,re,60,eric,1,0,2.684,6.372,185,-135,3.601,124,90,0.15,3.733,re_r_order
15,5,re,70,jordan,86,0,2.083,1.858,-65,-40,2.366,113,108,0.05,3.535,re_r_order
15,6,re,80,brando,60,0,1.762,3.068,129,-151,2.52,121,-172,0.1,4.949,re_r_order
15,7,re,90,austin,65,0,1.804,1.531,109,-105,2.299,136,-138,0.15,3.161,re_r_order
15,8,re,65,daniel,96,0,1.859,1.676,143,-104,2.092,146,133,0.05,2.816,re_r_order
15,9,re,75,andre,111,0,2.66,26.913,134,62,2.165,179,207,0.15,2.904,re_r_order
15,10,re,85,zach,118,0,1.72,2.777,78,-99,2.06,78,-81,0.1,2.855,re_r_order
15,11,re,65,ryan,77,0,1.499,1.849,84,-80,2.041,54,128,0.1,1.762,re_r_order
15,12,re,60,jacob,131,0,2.052,2.011,113,-81,2.108,100,134,0.2,3.047,re_r_order
15,13,re,55,john,102,0,1.102,2.058,99,223,2.667,65,63,0.35,2.547,re_r_order
15,14,re,95,dylan,143,0,2.126,3.617,62,90,2.86,-109,-110,0.15,2.446,re_r_order
15,15,re,70,justi,155,0,1.894,2.289,-107,-111,2.067,110,125,0.15,1.374,re_r_order
15,16,re,50,aaron,21,0,2.474,3.369,65,-135,2.147,64,153,0.2,1.773,re_r_order
15,17,re,55,kevin,127,0,1.807,1.744,193,-188,1.839,136,98,0.15,2.59,re_r_order
15,18,re,50,cody,117,0,1.47,2.76,161,-93,1.913,189,39,0.2,2.402,re_r_order
15,19,re,85,matt,137,0,1.745,2.066,173,89,2.368,164,-44,0.5,1.95,re_r_order
15,20,re,90,chris,88,0,1.438,2.527,104,-67,2.481,-61,-96,0.4,5.248,re_r_order
16,1,re,95,nichola,6,1,6.676,78.728,-24,-37,7.238,-52,-233,0.1,14.365,re_r_order
16,2,re,70,jordan,86,0,3.093,4.358,-127,-79,5.038,27,21,0.05,3.942,re_r_order
16,3,re,85,matt,137,0,2.997,3.844,-49,-144,4.465,14,-15,0,3.476,re_r_order
16,4,re,50,cody,117,0,2.795,4.388,-20,-22,4.973,167,233,0.1,2.947,re_r_order
16,5,re,55,john,102,0,1.829,3.208,13,16,3.791,212,236,0.25,2.521,re_r_order
16,6,re,55,kevin,127,0,1.766,3.025,-25,-165,2.86,239,234,0,3.336,re_r_order
16,7,re,80,brando,60,0,2.118,3.64,27,-30,4.211,38,9,0.15,2.378,re_r_order
16,8,re,60,jacob,131,0,1.968,2.819,-13,-30,3.513,166,169,0.05,4.674,re_r_order
16,9,re,85,zach,118,0,3.052,3.203,37,-28,3.602,35,-71,0.2,2.795,re_r_order
16,10,re,75,samuel,57,0,1.878,3.316,41,21,3.375,35,30,0.2,3.02,re_r_order
16,11,re,70,justi,155,0,2.01,3.149,-17,-45,3.275,24,10,0.05,3.217,re_r_order
16,12,re,60,eric,1,0,2.103,2.902,52,16,3.638,172,214,0.15,3.668,re_r_order
16,13,re,90,austin,65,0,2.041,3.839,58,34,3.466,-23,-140,0.2,4.071,re_r_order
16,14,re,95,dylan,143,1,2.803,2.841,25,20,5.477,-140,32,0,3.45,re_r_order
16,15,re,75,andre,111,0,2.349,5.685,26,25,3.024,56,59,0.2,3.519,re_r_order
16,16,re,65,ryan,77,0,2.322,5.662,21,4,3.403,34,55,0.25,3.347,re_r_order
16,17,re,65,daniel,96,0,2.528,4.966,69,51,3.12,90,101,0.3,4.563,re_r_order
16,18,re,90,chris,88,0,3.079,2.778,-44,-41,3.75,-52,-119,0.05,2.44,re_r_order
16,19,re,80,ben,136,0,2.474,4.77,77,18,2.709,77,45,0.2,3.586,re_r_order
16,20,re,50,aaron,21,0,3.021,2.239,-28,-53,3.439,217,232,0.1,3.741,re_r_order
17,1,re,80,brando,60,1,6.999,6.201,-43,-92,4.51,43,24,0.1,3.999,re_r_order
17,2,re,85,zach,118,1,2.696,3.163,-45,-21,4.036,-45,-29,0.15,4.531,re_r_order
17,3,re,95,dylan,143,1,2.687,2.615,-56,-65,4.794,-38,-165,0.05,3.192,re_r_order
17,4,re,55,john,102,0,2.712,5.904,98,48,3.745,52,54,0.2,4.093,re_r_order
17,5,re,60,jacob,131,0,2.196,3.007,-37,22,6.172,73,108,0.15,3.216,re_r_order
17,6,re,70,justi,155,0,2.614,3.25,-10,-68,3.141,28,58,0.05,3.14,re_r_order
17,7,re,75,andre,111,1,3.125,3.148,-171,-72,3.36,-120,-96,0.1,3.742,re_r_order
17,8,re,65,ryan,77,0,3.123,3.114,65,101,3.425,66,-47,0.25,2.824,re_r_order
17,9,re,70,jordan,86,1,2.4,2.642,-70,39,2.909,-76,36,0.1,7.976,re_r_order
17,10,re,50,cody,117,0,2.898,3.424,19,-29,3.421,161,177,0.15,3.227,re_r_order
17,11,re,85,matt,137,1,2.292,2.537,68,76,3.001,-144,-129,0.2,3.041,re_r_order
17,12,re,95,nichola,6,1,2.952,3.894,-85,107,3.424,-216,230,0.2,3.828,re_r_order
17,13,re,75,samuel,57,1,3.542,2.492,-173,-183,4.919,-31,-233,0.1,2.742,re_r_order
17,14,re,90,austin,65,1,2.032,10.652,-58,54,3.322,-184,52,0.15,16.069,re_r_order
17,15,re,55,kevin,127,0,2.964,3.206,44,20,3.287,167,136,0.2,3.099,re_r_order
17,16,re,50,aaron,21,0,3.922,2.454,68,35,2.559,161,199,0.25,4.871,re_r_order
17,17,re,65,daniel,96,0,1.993,2.229,26,-71,3.1,157,-140,0.3,3.749,re_r_order
17,18,re,80,ben,136,1,2.53,3.061,38,-3,3.712,-53,6,0.15,3.301,re_r_order
17,19,re,90,chris,88,1,3.057,2.586,-73,28,3.238,-189,-171,0.15,3.771,re_r_order
17,20,re,60,eric,1,0,2.167,2.16,-94,-89,2.756,173,139,0.05,5.62,re_r_order
18,1,re,90,chris,88,0,3.129,9.721,-65,99,6,-184,34,0.15,4.283,r_re_order
18,2,re,60,jacob,131,0,1.89,3.167,113,104,3.039,143,84,0.4,4.764,r_re_order
18,3,re,75,andre,111,0,1.927,2.612,-113,65,3.756,-71,41,0.1,3.304,r_re_order
18,4,re,65,daniel,96,0,2.93,2.928,115,121,6.594,-91,50,0.4,4.061,r_re_order
18,5,re,70,justi,155,0,2.358,4.813,-121,52,3.422,-64,52,0.25,1.781,r_re_order
18,6,re,50,cody,117,0,1.697,2.616,203,113,3.823,184,174,0.45,4.156,r_re_order
18,7,re,50,aaron,21,0,2.364,5.121,-180,26,4.386,204,187,0.15,2.558,r_re_order
18,8,re,55,kevin,127,0,1.519,2.553,-138,31,4.403,122,134,0.15,1.844,r_re_order
18,9,re,95,nichola,6,0,5.102,2.361,-155,37,4.291,-202,126,0.2,2.048,r_re_order
18,10,re,70,jordan,86,0,2.342,12.111,-93,36,2.648,-81,65,0.25,2.795,r_re_order
18,11,re,55,john,102,0,1.867,3.565,112,96,2.978,166,118,0.35,3.785,r_re_order
18,12,re,90,austin,65,0,1.969,2.771,-142,72,3.549,-183,113,0.2,1.698,r_re_order
18,13,re,85,matt,137,0,2.53,2.391,189,190,3.946,-211,114,0.5,2.528,r_re_order
18,14,re,65,ryan,77,0,1.812,3.151,-131,136,7.082,-130,46,0.3,3.277,r_re_order
18,15,re,80,brando,60,0,1.98,2.3,27,62,2.768,-94,67,0.35,2.276,r_re_order
18,16,re,95,dylan,143,0,2.231,1.929,-158,34,2.617,-213,115,0.2,2.245,r_re_order
18,17,re,85,zach,118,0,1.95,2.43,170,70,3.525,-157,77,0.4,1.702,r_re_order
18,18,re,75,samuel,57,0,2.245,5.667,-138,46,3.571,-165,71,0.35,8.692,r_re_order
18,19,re,60,eric,1,0,1.846,2.071,159,60,2.71,106,71,0.4,3.327,r_re_order
18,20,re,80,ben,136,0,1.698,4.301,145,137,2.488,-151,98,0.45,2.055,r_re_order
19,1,re,80,brando,60,0,4.112,5.643,-104,-89,7.396,-52,-67,0.1,7.153,re_r_order
19,2,re,85,zach,118,0,3.317,2.853,-126,-122,8.495,-132,-119,0.15,2.714,re_r_order
19,3,re,90,austin,65,0,2.739,2.762,-167,-4,4.236,-187,-1,0.05,4.576,re_r_order
19,4,re,50,aaron,21,0,1.981,2.66,-180,-1,4.12,72,3,0.05,2.087,re_r_order
19,5,re,65,daniel,96,0,2.81,2.116,-156,5,3.213,-51,-3,0.15,3.075,re_r_order
19,6,re,90,chris,88,0,1.871,2.49,-120,5,2.494,-145,3,0.1,1.796,re_r_order
19,7,re,80,ben,136,0,1.991,2.196,-137,2,2.6,-129,-3,0.1,1.939,re_r_order
19,8,re,55,kevin,127,0,2.06,24.593,-149,-2,3.053,39,3,0.1,1.571,re_r_order
19,9,re,70,jordan,86,0,1.754,2.131,-130,1,3.175,-73,1,0.1,1.98,re_r_order
19,10,re,85,matt,137,0,1.947,21.223,-189,-5,3.786,-152,2,0.1,2.629,re_r_order
19,11,re,60,eric,1,0,1.899,2.4,-128,3,4.177,38,6,0.15,2.154,re_r_order
19,12,re,70,justi,155,0,1.59,2.386,-101,-7,2.562,-11,-5,0.1,2.018,re_r_order
19,13,re,95,dylan,143,0,1.841,1.969,-125,4,2.868,-209,-1,0.1,2.044,re_r_order
19,14,re,50,cody,117,0,2.054,3.267,-175,1,3.72,217,-1,0.05,1.761,re_r_order
19,15,re,55,john,102,0,1.947,2.098,-86,1,3.529,118,2,0.15,1.758,re_r_order
19,16,re,60,jacob,131,0,1.981,2.118,-112,-4,3.044,26,5,0.2,2.453,re_r_order
19,17,re,75,andre,111,0,1.723,2.591,-123,-1,3.407,-21,-3,0.15,3.031,re_r_order
19,18,re,95,nichola,6,0,2.352,2.965,-89,4,6.064,-89,2,0.15,1.996,re_r_order
19,19,re,65,ryan,77,0,3.557,3.896,-162,-1,2.883,20,5,0.05,1.286,re_r_order
19,20,re,75,samuel,57,0,2.169,7.199,-176,-4,8.191,-4,3,0.05,19.727,re_r_order
20,1,re,65,ryan,77,0,2.425,2.975,0,3,5.947,-21,-22,0.2,3.27,re_r_order
20,2,re,50,aaron,21,0,2.044,3.305,-5,-2,5.232,104,6,0.2,6.221,re_r_order
20,3,re,70,justi,155,0,2.246,2.995,-8,1,4.222,-14,-16,0.2,1.704,re_r_order
20,4,re,70,jordan,86,0,3.17,2.6,-6,-3,5.414,-13,-18,0.2,1.96,re_r_order
20,5,re,60,eric,1,0,2.012,2.048,0,2,4.04,24,2,0.2,3.747,re_r_order
20,6,re,95,dylan,143,0,2.313,2.494,7,-3,4.007,-63,-77,0.2,1.571,re_r_order
20,7,re,85,matt,137,0,1.747,2.655,-1,-4,2.916,-20,-34,0.2,2.154,re_r_order
20,8,re,60,jacob,131,0,1.937,2.894,3,0,4.723,20,10,0.2,1.398,re_r_order
20,9,re,90,austin,65,0,1.662,5.38,2,8,4.68,-34,-72,0.2,1.505,re_r_order
20,10,re,55,john,102,0,1.565,2.951,0,-5,2.257,35,18,0.2,1.364,re_r_order
20,11,re,65,daniel,96,0,1.837,3.013,7,7,2.727,20,6,0.2,0.916,re_r_order
20,12,re,90,chris,88,0,1.964,3.221,-8,-4,2.198,-57,-29,0.2,1.523,re_r_order
20,13,re,55,kevin,127,0,1.283,3.933,0,-4,2.881,76,20,0.2,1.645,re_r_order
20,14,re,80,ben,136,0,1.437,15.52,2,0,3.156,6,-4,0.2,2.035,re_r_order
20,15,re,80,brando,60,0,1.665,2.574,5,-9,2.183,26,2,0.2,1.564,re_r_order
20,16,re,75,samuel,57,0,1.5,3.032,-9,8,3.09,17,5,0.2,1.565,re_r_order
20,17,re,85,zach,118,0,1.436,2.131,2,3,3.708,-10,-4,0.2,1.496,re_r_order
20,18,re,95,nichola,6,1,9.549,3.532,-7,-4,2.735,-83,-17,0.2,1.71,re_r_order
20,19,re,75,andre,111,0,2.29,2.08,-3,-4,3.794,15,-2,0.2,1.446,re_r_order
20,20,re,50,cody,117,0,1.742,3.529,5,2,3.407,217,0,0.2,1.815,re_r_order
21,1,re,60,jacob,131,0,4.238,6.137,-69,-67,7.718,28,32,0.15,30.423,re_r_order
21,2,re,70,justi,155,0,4.551,3.253,-39,-21,6.187,-28,-33,0.2,8.38,re_r_order
21,3,re,80,ben,136,0,7.035,3.098,-17,-18,9.809,-71,-52,0.25,3.794,re_r_order
21,4,re,50,cody,117,0,2.149,3.331,-97,-101,5.544,22,9,0.1,3.525,re_r_order
21,5,re,65,daniel,96,0,2.138,1.483,-119,-147,3.905,-27,-24,0.05,2.278,re_r_order
21,6,re,95,nichola,6,0,2.097,1.969,-33,-32,4.715,-155,-131,0.15,4.374,re_r_order
21,7,re,70,jordan,86,0,2.061,1.92,-34,-39,3.844,-18,-19,0.1,2.333,re_r_order
21,8,re,65,ryan,77,0,2.033,2.172,-126,-146,3.9,-23,-18,0.05,2.65,re_r_order
21,9,re,55,kevin,127,0,1.42,1.548,-74,-61,3.872,-8,3,0.1,1.904,re_r_order
21,10,re,95,dylan,143,0,2.038,1.464,-116,-100,4.074,-152,-121,0.1,1.941,re_r_order
21,11,re,90,chris,88,0,3.798,1.334,-94,-116,3.786,-161,-163,0,4.581,re_r_order
21,12,re,50,aaron,21,0,2.942,1.251,-171,-165,3.5,-9,-1,0.05,2.188,re_r_order
21,13,re,60,eric,1,0,1.734,2.36,-105,-129,3.379,-24,-17,0.05,5.447,re_r_order
21,14,re,55,john,102,0,1.656,1.344,-69,-79,3.72,-8,-9,0.1,1.966,re_r_order
21,15,re,75,andre,111,0,1.782,3.324,-132,-133,3.178,-69,-67,0.15,3.2,re_r_order
21,16,re,80,brando,60,0,1.632,2.491,-78,-99,3.641,-124,-67,0.15,71.893,re_r_order
21,17,re,90,austin,65,0,1.969,1.56,-63,-58,3.549,-187,-207,0.1,8.347,re_r_order
21,18,re,85,zach,118,0,2.022,3.183,-49,-73,3.114,-102,-133,0.15,2.025,re_r_order
21,19,re,85,matt,137,0,2.073,2.064,-160,-144,2.919,-95,-105,0.05,2.024,re_r_order
21,20,re,75,samuel,57,0,1.577,1.405,-141,-117,2.685,-169,-161,0.05,2.013,re_r_order
22,1,re,50,cody,117,0,2.475,6.186,4,102,3.643,226,92,0.1,5.427,r_re_order
22,2,re,80,brando,60,1,2.512,3.112,21,87,2.995,-192,77,0.25,2.844,r_re_order
22,3,re,95,dylan,143,1,3.242,3.284,-90,121,3.616,-237,76,0.2,4.413,r_re_order
22,4,re,70,jordan,86,1,3.859,3.321,181,85,2.859,-92,62,0.45,7.219,r_re_order
22,5,re,55,kevin,127,0,2.842,3.167,119,63,3.534,194,190,0.35,3.266,r_re_order
22,6,re,85,matt,137,1,5.934,2.665,103,4,4.188,-157,21,0.3,4.731,r_re_order
22,7,re,60,eric,1,0,2.65,3.205,-112,145,3.141,129,119,0.1,2.432,r_re_order
22,8,re,50,aaron,21,0,23.771,2.381,113,-3,2.51,215,207,0.4,3.622,r_re_order
22,9,re,55,john,102,0,2.471,2.507,-14,108,2.424,188,190,0.2,2.223,r_re_order
22,10,re,75,samuel,57,1,1.952,2.745,130,1,2.568,-136,6,0.35,2.233,r_re_order
22,11,re,65,daniel,96,1,3.265,2.493,192,-139,3.271,61,5,0.45,1.229,r_re_order
22,12,re,95,nichola,6,1,2.684,2.394,113,118,3.705,-204,119,0.4,1.997,r_re_order
22,13,re,85,zach,118,1,2.071,2.841,105,92,2.559,-136,127,0.45,2.161,r_re_order
22,14,re,70,justi,155,1,2.365,2.615,56,138,2.831,-15,25,0.35,3.876,r_re_order
22,15,re,75,andre,111,1,2.324,2.995,143,97,2.451,-21,39,0.5,2.177,r_re_order
22,16,re,60,jacob,131,0,2.195,2.356,95,73,3.536,108,-3,0.45,1.979,r_re_order
22,17,re,65,ryan,77,1,2.469,4.069,68,123,2.859,-26,46,0.4,2.41,r_re_order
22,18,re,90,austin,65,1,2.217,2.359,-54,78,2.79,-214,9,0.15,4.914,r_re_order
22,19,re,90,chris,88,1,3.128,2.221,203,16,2.839,-209,4,0.35,1.911,r_re_order
22,20,re,80,ben,136,1,2.972,4.33,88,129,3.887,-172,90,0.45,1.83,r_re_order
23,1,re,55,john,102,0,3.788,11.408,29,-55,6.271,105,13,0.3,4.515,r_re_order
23,2,re,80,brando,60,1,2.943,5.506,-41,-9,7.942,-166,20,0.15,3.53,r_re_order
23,3,re,50,cody,117,0,2.389,3.094,-13,2,4.972,210,86,0.2,2.401,r_re_order
23,4,re,90,austin,65,1,2.915,3.329,5,16,4.372,-176,14,0.25,2.753,r_re_order
23,5,re,70,jordan,86,0,2.348,4.978,44,-12,6.701,-7,-10,0.3,3.539,r_re_order
23,6,re,75,andre,111,0,2.032,2.761,-52,-5,4.78,-8,-3,0.15,2.683,r_re_order
23,7,re,60,jacob,131,0,1.924,2.906,54,-10,5.758,104,6,0.35,2.542,r_re_order
23,8,re,50,aaron,21,0,1.921,5.599,15,-8,4.03,163,24,0.3,3.684,r_re_order
23,9,re,85,zach,118,1,2.064,2.548,-85,-8,3.541,-82,-4,0.1,3.594,r_re_order
23,10,re,60,eric,1,0,2.485,3.622,-47,0,4.312,191,9,0.2,4.642,r_re_order
23,11,re,75,samuel,57,0,1.953,3.537,-46,-1,4.245,-11,2,0.2,2.967,r_re_order
23,12,re,85,matt,137,1,2.792,3.991,-11,-2,5.545,-131,21,0.25,9.018,r_re_order
23,13,re,65,daniel,96,0,1.648,3.065,134,-13,3.536,36,-1,0.4,4.07,r_re_order
23,14,re,65,ryan,77,0,2.361,2.463,-30,1,3.277,25,-2,0.2,2.215,r_re_order
23,15,re,90,chris,88,1,1.809,3.288,-191,-15,4.99,-197,23,0.15,2.186,r_re_order
23,16,re,55,kevin,127,0,2.253,4.427,9,-3,3.429,172,25,0.3,3.547,r_re_order
23,17,re,80,ben,136,1,2.294,7.211,-35,-2,3.352,-129,3,0.25,2.511,r_re_order
23,18,re,95,nichola,6,1,2.21,2.841,-131,-2,4.049,-233,58,0.15,2.932,r_re_order
23,19,re,95,dylan,143,1,2.792,4.012,-176,0,3.312,-221,95,0.1,3.428,r_re_order
23,20,re,70,justi,155,0,1.498,3.457,-118,-8,2.968,68,8,0.15,2.68,r_re_order
24,1,re,70,justi,155,0,3.172,7.436,-153,147,6.097,-110,82,0.05,8.17,re_r_order
24,2,re,75,andre,111,0,2.536,3.219,-65,51,4.98,-167,116,0.25,4.095,re_r_order
24,3,re,95,dylan,143,0,4.462,3.309,-126,85,5.473,-225,211,0.25,2.791,re_r_order
24,4,re,65,ryan,77,0,2.011,4.227,-202,84,4.433,-37,41,0.15,3.831,re_r_order
24,5,re,70,jordan,86,0,1.959,4.2,-98,36,3.6,-139,114,0.1,3.474,re_r_order
24,6,re,90,austin,65,0,2.157,2.735,-159,82,3.513,-198,164,0.05,2.219,re_r_order
24,7,re,55,kevin,127,0,2.549,3.608,-150,68,7.338,153,52,0.15,2.189,re_r_order
24,8,re,50,aaron,21,0,2.359,2.545,-118,47,5.491,213,142,0.1,1.879,re_r_order
24,9,re,60,jacob,131,0,1.987,2.637,-98,44,4.658,12,5,0.15,1.988,re_r_order
24,10,re,95,nichola,6,0,1.88,2.512,-88,31,3.241,-181,179,0.2,1.706,re_r_order
24,11,re,50,cody,117,0,2.158,2.39,-110,51,6.093,211,137,0.15,2.745,re_r_order
24,12,re,60,eric,1,0,1.958,2.458,-115,62,4.739,5,3,0.2,1.566,re_r_order
24,13,re,85,zach,118,0,1.83,2.891,-139,45,3.271,-116,132,0.15,1.643,re_r_order
24,14,re,75,samuel,57,0,2.281,2.493,-167,81,3.3,-104,48,0.05,1.567,re_r_order
24,15,re,55,john,102,0,1.844,2.484,-68,44,3.572,10,7,0.25,1.673,re_r_order
24,16,re,80,ben,136,0,1.809,2.615,-162,48,4.033,-136,90,0.05,1.699,re_r_order
24,17,re,65,daniel,96,0,2.324,2.445,-109,56,4.289,-40,25,0.2,2.176,re_r_order
24,18,re,90,chris,88,0,2.843,2.594,-146,52,2.994,-160,159,0.05,1.803,re_r_order
24,19,re,80,brando,60,0,1.788,3.071,-116,38,3.008,-144,135,0.05,30.328,re_r_order
24,20,re,85,matt,137,0,2.42,3.055,-165,38,3.567,-137,105,0.05,1.618,re_r_order
25,1,re,60,eric,1,0,6.037,3.901,-77,0,4.308,-108,71,0.1,13.602,re_r_order
25,2,re,50,cody,117,0,2.116,5.09,0,1,6.654,232,138,0.25,6.449,re_r_order
25,3,re,90,austin,65,1,1.74,4.251,103,29,6.979,-240,-231,0.3,3.051,re_r_order
25,4,re,50,aaron,21,0,2.926,2.841,-100,18,5.498,225,220,0.1,3.223,re_r_order
25,5,re,95,nichola,6,1,1.902,2.799,-199,93,5.113,-231,195,0.05,2.903,re_r_order
25,6,re,55,john,102,0,2.319,3.225,108,25,4.804,170,19,0.25,3.06,re_r_order
25,7,re,85,zach,118,1,1.742,2.377,52,21,3.761,-203,27,0.2,7.13,re_r_order
25,8,re,70,jordan,86,1,2.677,6.052,-130,16,3.525,-80,22,0.1,2.567,re_r_order
25,9,re,80,brando,60,1,1.89,3.393,-181,14,3.132,-125,14,0.05,2.752,re_r_order
25,10,re,75,andre,111,1,2.339,2.176,-164,18,2.821,-77,11,0.05,4.285,re_r_order
25,11,re,65,daniel,96,0,2.598,2.007,-196,23,3.262,-79,15,0.05,2.581,re_r_order
25,12,re,85,matt,137,1,1.758,3.531,-13,21,3.621,-197,11,0.25,2.906,re_r_order
25,13,re,60,jacob,131,0,2.196,1.757,-136,12,3.1,92,15,0.1,2.041,re_r_order
25,14,re,75,samuel,57,1,2.009,3.612,-1,121,2.785,-33,15,0.2,22.938,re_r_order
25,15,re,80,ben,136,1,2.913,2.827,68,-3,2.851,-114,-10,0.3,9.579,re_r_order
25,16,re,70,justi,155,0,3.594,2.163,107,8,4.11,-11,1,0.35,2.876,re_r_order
25,17,re,65,ryan,77,0,2.464,2.663,80,-9,3.078,-37,-1,0.35,2.264,re_r_order
25,18,re,95,dylan,143,1,1.855,3.147,-69,5,2.85,-232,3,0.25,2.891,re_r_order
25,19,re,55,kevin,127,0,1.981,2.87,-162,0,2.171,193,2,0.05,2.855,re_r_order
25,20,re,90,chris,88,1,2.296,1.841,140,6,2.155,-197,2,0.35,1.823,re_r_order
26,1,re,65,ryan,77,0,2.845,5.9,-108,-119,9.403,24,-20,0.15,5.585,re_r_order
26,2,re,55,john,102,0,4.677,3.956,-79,-71,4.343,119,-20,0.1,4.728,re_r_order
26,3,re,80,ben,136,1,3.663,5.481,-39,-23,9.753,8,-9,0.2,3.618,re_r_order
26,4,re,85,matt,137,1,2.797,3.397,-29,-18,4.304,-176,-115,0.25,4.154,re_r_order
26,5,re,60,jacob,131,0,2.724,3.144,-36,-14,4.11,17,-13,0.15,3.62,re_r_order
26,6,re,90,austin,65,1,2.478,3.975,-176,-13,4.986,-187,-193,0.05,3.246,re_r_order
26,7,re,65,daniel,96,0,3.131,3.642,-60,-13,3.49,-27,-12,0.2,3.885,re_r_order
26,8,re,70,justi,155,0,4.434,3.538,-66,-12,3.968,-36,-12,0.1,3.03,re_r_order
26,9,re,80,brando,60,1,2.875,3.596,-108,-10,3.677,-128,-106,0.1,2.899,re_r_order
26,10,re,90,chris,88,1,2.795,4.091,-139,-101,3.057,-144,-203,0.1,2.943,re_r_order
26,11,re,50,aaron,21,0,2.96,4.754,-40,-19,4.112,192,134,0.2,3.17,re_r_order
26,12,re,75,andre,111,1,3.563,2.809,-107,-67,3.709,-59,-67,0.1,3.291,re_r_order
26,13,re,75,samuel,57,1,2.488,2.95,-60,-87,3.377,-20,-35,0.15,3.867,re_r_order
26,14,re,95,dylan,143,1,3.476,4.72,-58,-159,7.283,-211,211,0.2,2.749,re_r_order
26,15,re,95,nichola,6,1,2.382,4.498,11,-15,5.543,-219,222,0.25,3.209,re_r_order
26,16,re,60,eric,1,0,3.495,3.297,-32,-74,4.337,50,-52,0.15,3.676,re_r_order
26,17,re,70,jordan,86,0,2.947,3.604,-22,-46,4.399,-53,-78,0.2,3.489,re_r_order
26,18,re,55,kevin,127,0,2.69,4.082,-26,-116,3.614,95,114,0.25,7.415,re_r_order
26,19,re,50,cody,117,0,3.175,3.246,-150,-54,3.997,203,214,0.05,3.781,re_r_order
26,20,re,85,zach,118,1,2.804,3.331,-94,-103,5.115,-165,152,0.15,3.72,re_r_order
27,1,re,75,samuel,57,0,3.44,5.807,-14,-21,4.788,74,63,0.2,7.55,re_r_order
27,2,re,55,john,102,0,3.409,5.929,-35,-29,3.697,171,158,0.15,4.279,re_r_order
27,3,re,90,austin,65,0,2.459,3.645,-85,-100,3.986,-32,-29,0.05,3.112,re_r_order
27,4,re,50,cody,117,0,4.379,4.437,38,33,3.562,201,217,0.35,2.816,re_r_order
27,5,re,60,eric,1,0,2.267,3.913,5,0,4.241,161,162,0.1,3.724,re_r_order
27,6,re,85,matt,137,0,3.112,4.121,205,15,5.064,-220,-3,0.4,4.86,re_r_order
27,7,re,60,jacob,131,0,2.655,3.524,-35,-6,3.03,202,137,0.3,5.325,re_r_order
27,8,re,65,daniel,96,0,5.396,3.14,69,-1,3.62,-31,3,0.45,8.206,re_r_order
27,9,re,90,chris,88,0,2.342,2.891,-105,-1,4.643,-50,-4,0.05,6.172,re_r_order
27,10,re,70,justi,155,0,2.091,2.777,-5,-7,3.107,40,-2,0.15,5.649,re_r_order
27,11,re,80,ben,136,0,2.311,3.189,16,-2,3.104,-93,3,0.5,3.427,re_r_order
27,12,re,80,brando,60,0,2.652,3.809,0,7,4.016,1,5,0.2,2.981,re_r_order
27,13,re,50,aaron,21,0,2.365,3.124,-28,0,4.272,216,166,0.35,5.492,re_r_order
27,14,re,95,dylan,143,0,2.411,2.805,4,-9,5.679,-227,11,0.2,2.991,re_r_order
27,15,re,55,kevin,127,0,2.227,3.213,5,-5,4.791,219,210,0.25,2.916,re_r_order
27,16,re,65,ryan,77,0,2.623,4.36,-1,-2,2.903,189,74,0.35,2.679,re_r_order
27,17,re,70,jordan,86,0,3.382,2.508,9,2,4.351,-1,-2,0.25,4.642,re_r_order
27,18,re,95,nichola,6,0,3.202,4.187,-3,7,3.497,-237,3,0.35,6.117,re_r_order
27,19,re,75,andre,111,0,2.442,2.683,2,-15,4.188,72,-13,0.2,2.869,re_r_order
27,20,re,85,zach,118,0,1.528,2.746,-7,4,3.026,-216,-17,0.35,9.361,re_r_order
28,1,re,85,matt,137,1,4.047,5.436,-215,-215,11.696,-184,-41,0.05,7.466,re_r_order
28,2,re,65,ryan,77,0,3.901,3.74,-170,-108,5.877,45,-123,0.1,6.001,re_r_order
28,3,re,90,chris,88,1,7.373,5.063,-214,-203,7.132,-220,189,0.05,3.882,re_r_order
28,4,re,75,andre,111,0,4.031,4.684,-209,-217,4.001,-60,-78,0.2,4.802,re_r_order
28,5,re,50,aaron,21,0,2.656,2.701,-90,-77,5.765,215,76,0.25,7.256,re_r_order
28,6,re,65,daniel,96,0,4.261,2.941,-166,-139,5.045,-101,-106,0.15,5.001,re_r_order
28,7,re,55,john,102,0,2.721,3.234,-91,-139,4.3,0,-105,0.25,4.718,re_r_order
28,8,re,75,samuel,57,1,3.988,3.249,-191,-177,4.04,-173,-159,0.3,3.19,re_r_order
28,9,re,50,cody,117,0,3.025,4.086,-81,-46,7.234,123,1,0.25,3.876,re_r_order
28,10,re,95,nichola,6,1,3.172,5.501,-136,-89,5.332,-232,167,0.2,35.793,re_r_order
28,11,re,55,kevin,127,0,2.642,3.093,-131,-161,6.126,18,-11,0.15,2.712,re_r_order
28,12,re,95,dylan,143,1,3.929,3.717,-102,-32,4.082,-217,224,0.25,3.146,re_r_order
28,13,re,70,jordan,86,0,2.749,4.722,-37,-45,4.84,-17,-40,0.15,2.795,re_r_order
28,14,re,60,jacob,131,0,2.557,2.509,-56,-89,4.312,155,-37,0.35,5.812,re_r_order
28,15,re,70,justi,155,0,4.142,3.046,-43,-90,3.898,96,-70,0.25,3.037,re_r_order
28,16,re,90,austin,65,1,3.577,3.15,-73,-78,4.885,-224,134,0.2,3.133,re_r_order
28,17,re,60,eric,1,0,2.294,2.563,-195,-102,3.502,111,-90,0.2,2.502,re_r_order
28,18,re,80,brando,60,1,2.544,2.868,-49,-38,4.378,-217,120,0.3,5.967,re_r_order
28,19,re,80,ben,136,1,2.436,3.462,-113,-84,3.901,-233,77,0.35,3.637,re_r_order
28,20,re,85,zach,118,1,2.877,5.253,-165,-131,4.087,-235,60,0.25,2.053,re_r_order
29,1,re,90,austin,65,1,4.016,6.558,5,57,7.058,-185,168,0.5,7.674,re_r_order
29,2,re,50,cody,117,0,3.536,4.195,1,0,5.217,212,105,0.4,3.479,re_r_order
29,3,re,85,zach,118,1,11.989,5.896,4,0,5.62,-172,163,0.4,4.065,re_r_order
29,4,re,80,brando,60,0,2.292,7.455,-69,-3,4.208,-177,133,0.35,3.892,re_r_order
29,5,re,95,dylan,143,1,1.939,2.771,37,12,3.944,-193,179,0.4,3.28,re_r_order
29,6,re,80,ben,136,0,2.296,3.041,2,59,3.082,-178,139,0.5,3.479,re_r_order
29,7,re,75,samuel,57,0,1.861,3.299,-52,-4,6.777,45,5,0.35,3.345,re_r_order
29,8,re,55,john,102,0,1.78,4.326,6,-3,3.008,147,176,0.45,3.157,re_r_order
29,9,re,85,matt,137,1,2.106,2.874,1,-67,4.583,72,75,0.15,5.695,re_r_order
29,10,re,50,aaron,21,0,2.32,2.039,29,28,4.094,179,183,0.4,2.597,re_r_order
29,11,re,60,eric,1,0,2.029,2.655,1,30,3.194,56,51,0.45,3.257,re_r_order
29,12,re,75,andre,111,0,2.643,4.643,-32,-21,3.793,-38,15,0.35,5.675,re_r_order
29,13,re,95,nichola,6,1,1.426,4.025,-33,21,3.861,-176,176,0.3,2.903,re_r_order
29,14,re,65,ryan,77,0,1.716,3.883,49,56,2.969,19,43,0.45,2.977,re_r_order
29,15,re,70,jordan,86,0,2.097,2.697,5,4,3.035,0,15,0.35,2.623,re_r_order
29,16,re,60,jacob,131,0,1.448,3.036,-35,0,3.43,135,126,0.15,3.278,re_r_order
29,17,re,65,daniel,96,0,1.574,2.486,-127,-2,2.51,91,53,0.1,2.755,re_r_order
29,18,re,70,justi,155,0,1.823,8.995,-60,-3,2.877,49,31,0.35,2.955,re_r_order
29,19,re,90,chris,88,1,2.614,3.836,78,11,3.021,-163,92,0.45,3.459,re_r_order
29,20,re,55,kevin,127,0,3.918,3.419,-168,0,2.842,170,189,0.05,2.978,re_r_order
30,1,re,95,nichola,6,1,2.796,3.809,-36,-59,4.214,-220,-221,0.15,7.163,r_re_order
30,2,re,65,ryan,77,0,8.009,3.208,-4,-3,6.937,-25,-53,0.25,2.781,r_re_order
30,3,re,50,cody,117,0,2.495,8.797,7,-1,3.219,234,241,0.2,4.429,r_re_order
30,4,re,65,daniel,96,0,2.008,2.92,-64,-131,2.814,-20,-17,0.1,19.796,r_re_order
30,5,re,75,andre,111,0,2.033,3.229,3,0,2.642,-47,-125,0.25,3.164,r_re_order
30,6,re,50,aaron,21,0,1.484,2.774,-41,-131,2.649,229,226,0.1,3.27,r_re_order
30,7,re,70,justi,155,0,2.242,2.079,-10,-65,2.709,-37,-33,0.2,2.518,r_re_order
30,8,re,55,john,102,0,2.499,2.316,-13,-36,4.328,165,117,0.3,14.994,r_re_order
30,9,re,55,kevin,127,0,4.461,2.106,-94,-117,3.711,171,167,0.1,9.397,r_re_order
30,10,re,70,jordan,86,0,2.024,2.121,-83,-108,3.864,-79,-50,0.25,3.998,r_re_order
30,11,re,95,dylan,143,1,4.082,2.47,-43,-78,4.533,-203,-224,0.2,7.358,r_re_order
30,12,re,80,ben,136,1,1.611,3.746,78,72,2.247,-132,-138,0.4,3.474,r_re_order
30,13,re,90,chris,88,1,2.246,2.225,-18,-29,2.653,-146,-155,0.2,2.963,r_re_order
30,14,re,75,samuel,57,0,2.263,1.929,-32,-32,2.446,-60,-47,0.25,18.38,r_re_order
30,15,re,80,brando,60,0,1.512,3.527,-83,-96,2.533,-64,-67,0.1,2.825,r_re_order
30,16,re,85,zach,118,1,1.853,2.404,0,1,2.132,-131,-131,0.25,2.226,r_re_order
30,17,re,85,matt,137,1,1.663,1.934,-106,-180,2.11,-137,-148,0.15,2.219,r_re_order
30,18,re,60,eric,1,0,1.519,2.176,-104,-98,3.007,138,139,0.2,2.073,r_re_order
30,19,re,60,jacob,131,0,2.425,2.079,-81,-119,2.737,152,135,0.15,2.292,r_re_order
30,20,re,90,austin,65,1,2.064,3.026,-117,-111,2.765,-181,-194,0.2,4.111,r_re_order
31,1,re,65,daniel,96,0,2.628,6.678,64,50,5.992,18,-26,0.3,25.073,r_re_order
31,2,re,70,jordan,86,0,2.696,3.705,85,-26,4.655,10,-38,0.45,2.646,r_re_order
31,3,re,85,zach,118,1,2.675,2.848,-98,-58,4.171,-136,-32,0.15,2.613,r_re_order
31,4,re,50,cody,117,0,2.736,3.928,55,-54,3.231,167,161,0.3,2.72,r_re_order
31,5,re,50,aaron,21,0,2.664,3.027,139,16,3.383,217,191,0.4,2.995,r_re_order
31,6,re,80,ben,136,1,3.246,5.086,-17,-119,2.667,-47,-92,0.2,2.874,r_re_order
31,7,re,90,austin,65,1,32.091,3.763,-63,-54,5.718,-199,70,0.05,43.179,r_re_order
31,8,re,90,chris,88,1,2.693,2.743,-101,23,2.853,-224,76,0.1,6.509,r_re_order
31,9,re,55,john,102,0,3.08,2.777,137,35,3.127,196,89,0.45,4.344,r_re_order
31,10,re,65,ryan,77,0,2.523,2.524,60,-35,3.52,116,-30,0.3,3.411,r_re_order
31,11,re,85,matt,137,1,2.712,2.617,-24,-24,3.841,-139,-31,0.2,2.672,r_re_order
31,12,re,75,samuel,57,0,2.512,3.133,21,-28,3.468,11,-7,0.35,3.007,r_re_order
31,13,re,75,andre,111,0,3.326,2.389,63,-25,2.788,10,-14,0.3,2.773,r_re_order
31,14,re,80,brando,60,0,3.554,2.582,32,-28,2.801,61,-17,0.2,2.338,r_re_order
31,15,re,95,nichola,6,1,2.781,2.522,101,-5,3.673,-220,55,0.3,3.275,r_re_order
31,16,re,70,justi,155,0,2.485,2.876,-62,-14,2.6,37,-14,0.1,2.464,r_re_order
31,17,re,60,jacob,131,0,3.581,2.852,-65,26,3.337,114,50,0.3,27.531,r_re_order
31,18,re,95,dylan,143,1,3.706,3.579,-28,72,4.3,-230,50,0.15,5.936,r_re_order
31,19,re,55,kevin,127,0,5.156,7.54,98,32,6.547,158,35,0.3,2.417,r_re_order
31,20,re,60,eric,1,0,7.563,3.429,85,-33,5.46,183,43,0.25,2.561,r_re_order
32,1,re,50,cody,117,0,2.869,8.278,-84,20,8.611,207,3,0.2,3.272,r_re_order
32,2,re,80,brando,60,1,2.512,6.145,-100,-25,5.255,-144,-17,0.15,3.436,r_re_order
32,3,re,60,jacob,131,0,1.994,5.727,-59,-23,9.529,50,-14,0.25,3.185,r_re_order
32,4,re,85,zach,118,1,4.371,5.082,-63,-10,5.41,-161,-10,0.25,4.407,r_re_order
32,5,re,90,austin,65,1,2.37,5.396,-91,-16,5.073,-188,21,0.25,6.313,r_re_order
32,6,re,70,justi,155,1,2.798,11.198,-83,-45,6.303,-29,-10,0.2,2.645,r_re_order
32,7,re,65,daniel,96,1,4.574,3.784,-195,-16,6.171,-15,-7,0.05,3.736,r_re_order
32,8,re,55,john,102,0,3.032,6.537,-6,-6,7.324,18,-16,0.4,4.355,r_re_order
32,9,re,75,andre,111,1,3.501,4.862,-166,-9,8.193,-112,-38,0.1,3.989,r_re_order
32,10,re,70,jordan,86,1,3.216,4.578,-205,-17,4.557,-84,-15,0.05,3.033,r_re_order
32,11,re,90,chris,88,1,3.046,5.033,-90,-9,6.691,-225,-11,0.1,3.013,r_re_order
32,12,re,75,samuel,57,1,3.191,4.899,-137,-90,4.451,-104,-39,0.15,12.393,r_re_order
32,13,re,85,matt,137,1,2.375,4.197,-169,-22,4.586,-175,-21,0.1,2.695,r_re_order
32,14,re,95,nichola,6,1,2.976,4.64,-139,-10,4.985,-211,-21,0.15,4.782,r_re_order
32,15,re,65,ryan,77,0,2.88,4.54,-122,-13,5.944,-17,-11,0.25,3.121,r_re_order
32,16,re,55,kevin,127,0,2.364,3.074,-202,-15,7.336,38,-14,0.05,3.515,r_re_order
32,17,re,80,ben,136,1,2.932,4.566,-19,-11,4.276,-179,-19,0.25,3.266,r_re_order
32,18,re,50,aaron,21,0,2.575,3.571,-21,-16,8.533,186,-21,0.3,4.361,r_re_order
32,19,re,95,dylan,143,1,2.974,3.512,-168,-16,5.582,-222,-37,0.1,3.499,r_re_order
32,20,re,60,eric,1,0,2.928,3.273,-148,-18,5.069,-16,-11,0.1,9.88,r_re_order
33,1,re,55,kevin,127,0,3.39,8.29,-72,15,9.552,187,22,0.3,4.385,r_re_order
33,2,re,80,brando,60,0,2.456,5.775,47,-7,7.439,-195,-2,0.45,5.559,r_re_order
33,3,re,75,samuel,57,0,2.594,4.418,-73,1,4.595,-140,-8,0.2,3.906,r_re_order
33,4,re,65,daniel,96,0,3.278,3.434,40,-5,4.535,-46,1,0.4,3.349,r_re_order
33,5,re,50,cody,117,0,3.257,3.887,50,-3,6.976,234,196,0.35,5.624,r_re_order
33,6,re,85,zach,118,0,4.109,4.366,-90,-12,4.513,-207,-4,0.3,3.676,r_re_order
33,7,re,60,eric,1,0,3.278,3.208,-134,-4,4.09,203,50,0.2,3.638,r_re_order
33,8,re,85,matt,137,0,3.761,4,-60,-7,4.172,-207,1,0.35,3.241,r_re_order
33,9,re,55,john,102,0,3.462,3.43,166,-7,5.096,158,-2,0.45,4.136,r_re_order
33,10,re,80,ben,136,0,2.328,2.773,92,-6,4.253,-165,-2,0.4,6.298,r_re_order
33,11,re,65,ryan,77,0,3.633,4.603,-31,-3,5.481,-46,-4,0.3,3.423,r_re_order
33,12,re,95,dylan,143,1,3.296,2.924,-109,-5,7.027,-237,48,0.25,3.711,r_re_order
33,13,re,90,chris,88,1,2.663,2.974,66,-3,4.515,-221,0,0.35,3.788,r_re_order
33,14,re,70,jordan,86,0,2.221,3.149,84,-1,3.887,-27,-1,0.35,4.62,r_re_order
33,15,re,60,jacob,131,0,2.9,3.832,69,8,3.848,-36,-3,0.35,6.174,r_re_order
33,16,re,95,nichola,6,1,2.813,3.189,-42,-8,7.631,-234,-53,0.25,2.804,r_re_order
33,17,re,70,justi,155,0,1.828,2.352,-134,2,3.719,-132,-8,0.15,2.661,r_re_order
33,18,re,50,aaron,21,0,3.051,3.351,-105,-1,5.212,240,112,0.25,4.526,r_re_order
33,19,re,90,austin,65,1,2.914,3.917,35,8,3.723,-209,3,0.4,3.068,r_re_order
33,20,re,75,andre,111,0,2.244,7.974,70,9,3.668,-105,-3,0.35,5.315,r_re_order
34,1,re,65,ryan,77,0,11.856,10.413,-119,-125,8.817,-81,-69,0.2,36.187,re_r_order
34,2,re,70,jordan,86,0,3.52,2.784,-54,-67,4.852,-107,-129,0.2,3.133,re_r_order
34,3,re,90,chris,88,1,3.204,5.172,1,-1,6.012,-218,-228,0.25,2.596,re_r_order
34,4,re,60,jacob,131,0,3.43,3.887,-3,-2,7.512,-9,-12,0.25,3.288,re_r_order
34,5,re,70,justi,155,1,6.354,6.159,-47,-51,4.268,-101,-88,0.3,7.832,re_r_order
34,6,re,80,brando,60,1,4.879,2.983,39,35,3.62,58,46,0.35,2.625,re_r_order
34,7,re,75,andre,111,1,4.107,3.265,-157,-147,3.963,-146,-154,0.1,5.764,re_r_order
34,8,re,65,daniel,96,0,3.397,3.446,65,-47,8.58,-33,-29,0.4,3.133,re_r_order
34,9,re,50,cody,117,0,4.62,3.43,105,127,5.29,45,38,0.5,2.541,re_r_order
34,10,re,50,aaron,21,0,4.477,3.288,0,0,4.577,114,125,0.3,3.257,re_r_order
34,11,re,75,samuel,57,1,2.734,6.919,-22,-26,4.873,-94,-90,0.15,3.12,re_r_order
34,12,re,55,john,102,0,3.176,5.252,78,75,12.421,120,100,0.5,4.078,re_r_order
34,13,re,90,austin,65,1,2.839,5.563,83,114,5.308,-219,-223,0.45,5.036,re_r_order
34,14,re,60,eric,1,0,2.516,2.292,-113,-147,4.456,55,52,0.15,2.742,re_r_order
34,15,re,85,matt,137,1,3.874,3.458,-198,-215,4.494,-172,-158,0.1,6.777,re_r_order
34,16,re,85,zach,118,1,2.92,3.038,-184,-142,3.234,-151,-187,0.15,2.737,re_r_order
34,17,re,55,kevin,127,0,2.55,3.762,-35,-50,3.777,108,118,0.3,2.334,re_r_order
34,18,re,95,dylan,143,1,2.688,2.548,76,104,3.965,-241,-241,0.4,2.67,re_r_order
34,19,re,80,ben,136,1,3.259,3.195,68,64,4.474,-153,-115,0.4,2.897,re_r_order
34,20,re,95,nichola,6,1,2.726,4.102,27,32,3.732,-233,-237,0.35,6.95,re_r_order
35,1,re,70,jordan,86,0,7.83,9.039,-184,45,11.274,-216,96,0.2,11.64,re_r_order
35,2,re,85,matt,137,0,3.878,7.208,-220,30,9.983,-235,23,0.15,4.518,re_r_order
35,3,re,50,cody,117,0,2.671,6.447,93,19,7.402,232,70,0.45,6.689,re_r_order
35,4,re,65,ryan,77,0,2.343,5.009,-103,15,6.523,-107,14,0.3,3.523,re_r_order
35,5,re,55,john,102,0,1.938,4.807,221,12,6.752,22,7,0.5,3.233,re_r_order
35,6,re,75,andre,111,0,2.062,4.093,-230,20,5.705,-156,13,0.05,4.781,re_r_order
35,7,re,75,samuel,57,0,2.077,3.568,-160,12,4.634,-134,12,0.2,3.704,re_r_order
35,8,re,90,austin,65,0,1.963,3.69,-108,13,6.581,-237,82,0.35,3.332,re_r_order
35,9,re,65,daniel,96,0,2.112,4.161,-177,17,3.263,-120,13,0.25,3.795,re_r_order
35,10,re,80,ben,136,0,2.014,4.329,-51,12,5.178,-240,15,0.4,4.958,re_r_order
35,11,re,95,dylan,143,0,2.32,4.306,-188,15,5.222,-239,186,0.1,3.597,re_r_order
35,12,re,50,aaron,21,0,2.008,5.107,-131,15,3.548,230,151,0.3,3.474,re_r_order
35,13,re,60,eric,1,0,2.07,2.563,-148,19,4.13,15,9,0.3,2.759,re_r_order
35,14,re,90,chris,88,0,1.639,3.851,-94,14,3.416,-237,150,0.35,2.388,re_r_order
35,15,re,55,kevin,127,0,1.63,2.659,-125,13,3.999,33,11,0.2,3.251,re_r_order
35,16,re,85,zach,118,0,2.634,4.576,-67,15,3.595,-165,54,0.35,2.441,re_r_order
35,17,re,70,justi,155,0,2.095,2.995,-149,26,4.806,-144,42,0.25,3.994,re_r_order
35,18,re,95,nichola,6,0,1.875,4.634,-190,14,3.622,-228,171,0.25,2.13,re_r_order
35,19,re,60,jacob,131,0,1.404,2.351,-190,21,6.521,-17,84,0.15,3.897,re_r_order
35,20,re,80,brando,60,0,1.284,4.204,-164,20,4.882,-153,37,0.2,1.828,re_r_order
36,1,re,50,aaron,21,0,2.669,8.051,-106,2,6.472,224,-2,0.1,5.594,r_re_order
36,2,re,55,kevin,127,0,2.789,3.933,-108,0,4.211,219,-1,0.1,3.528,r_re_order
36,3,re,90,austin,65,0,2.611,4.545,1,4,5.093,-57,-2,0.2,3.222,r_re_order
36,4,re,80,brando,60,0,2.746,5.251,-56,1,8.105,-2,1,0.15,3.192,r_re_order
36,5,re,75,samuel,57,0,2.432,3.395,1,1,4.591,-1,1,0.25,5.711,r_re_order
36,6,re,70,jordan,86,0,2.31,3.975,30,0,3.431,30,-2,0.3,5.351,r_re_order
36,7,re,60,jacob,131,0,1.861,2.845,-158,1,6.347,125,-4,0.05,2.926,r_re_order
36,8,re,85,zach,118,0,2.083,3.75,-121,1,4.863,-69,-4,0.1,3.635,r_re_order
36,9,re,60,eric,1,0,2.842,4.042,-32,0,4.594,132,-4,0.2,2.862,r_re_order
36,10,re,95,dylan,143,0,2.644,4.204,-138,0,4.199,-192,-1,0.05,2.679,r_re_order
36,11,re,65,daniel,96,0,2.278,2.97,72,-5,3.451,73,2,0.35,2.915,r_re_order
36,12,re,90,chris,88,0,4.292,3.461,-60,0,4.52,-126,-3,0.15,2.163,r_re_order
36,13,re,55,john,102,0,2.055,4.091,-26,-1,3.553,172,1,0.2,10.083,r_re_order
36,14,re,75,andre,111,0,4.087,3.408,-131,-4,3.535,-29,3,0.1,2.763,r_re_order
36,15,re,80,ben,136,0,2.489,6.631,80,3,3.536,-15,-2,0.35,3.272,r_re_order
36,16,re,85,matt,137,0,3.174,4.305,-139,0,4,-70,5,0.05,2.187,r_re_order
36,17,re,70,justi,155,0,2.529,4.146,-64,2,8.156,-12,5,0.15,2.95,r_re_order
36,18,re,65,ryan,77,0,2.077,3.755,-55,2,3.812,14,-2,0.2,3.749,r_re_order
36,19,re,95,nichola,6,0,2.365,3.912,-113,1,5.147,-163,1,0.1,2.086,r_re_order
36,20,re,50,cody,117,0,2.46,4.177,-93,0,4.923,175,2,0.15,2.749,r_re_order
37,1,re,50,aaron,21,0,2.546,5.97,-152,80,4.678,192,151,0.1,11.102,re_r_order
37,2,re,90,austin,65,1,2.086,3.626,-115,60,5.032,-239,242,0.1,2.713,re_r_order
37,3,re,95,nichola,6,1,2.947,3.99,39,-32,6.107,-240,236,0.2,3.204,re_r_order
37,4,re,60,jacob,131,0,2.08,2.395,-64,33,4.293,76,82,0.2,6.294,re_r_order
37,5,re,95,dylan,143,1,2.282,2.374,-58,68,5.702,-199,74,0.05,6.152,re_r_order
37,6,re,65,daniel,96,0,1.939,2.37,-45,23,4.329,82,-23,0.25,3.867,re_r_order
37,7,re,85,matt,137,1,1.938,9.346,-72,42,4.155,-207,101,0.15,10.861,re_r_order
37,8,re,80,ben,136,1,1.987,2.736,-26,25,3.814,-112,16,0.25,2.188,re_r_order
37,9,re,70,jordan,86,0,2.349,5.051,-59,24,3.26,39,10,0.2,13.972,re_r_order
37,10,re,60,eric,1,0,2.365,4.7,-27,63,3.536,89,96,0.1,2.265,re_r_order
37,11,re,70,justi,155,0,2.24,2.216,-154,87,5.177,16,50,0.05,2.636,re_r_order
37,12,re,55,john,102,0,2.191,2.115,43,49,3.547,180,144,0.2,12.649,re_r_order
37,13,re,85,zach,118,1,2.72,1.937,66,61,3.558,-129,65,0.1,12.2,re_r_order
37,14,re,55,kevin,127,0,2.359,1.577,-140,68,2.865,158,119,0.05,9.24,re_r_order
37,15,re,50,cody,117,0,1.654,2.283,-63,16,2.608,217,192,0.15,4.394,re_r_order
37,16,re,75,andre,111,1,2.146,3.01,-7,-1,3.859,-53,24,0.2,1.807,re_r_order
37,17,re,65,ryan,77,0,6.135,2.637,9,35,2.986,104,51,0.1,21.265,re_r_order
37,18,re,90,chris,88,1,2.005,2.043,-87,39,3.582,-236,197,0.15,1.625,re_r_order
37,19,re,75,samuel,57,0,2.05,2.063,-58,37,2.331,36,37,0.15,1.836,re_r_order
37,20,re,80,brando,60,1,1.844,1.521,-83,50,3.271,-119,48,0.2,2.505,re_r_order
38,1,re,90,chris,88,1,7.543,8.278,-107,-107,6.196,-215,-215,0,2.467,r_re_order
38,2,re,95,nichola,6,1,3.067,10.371,1,2,4.416,-185,-215,0,4.78,r_re_order
38,3,re,70,justi,155,0,4.17,3.264,-4,-9,7.089,-48,5,0,2.51,r_re_order
38,4,re,95,dylan,143,1,3.135,2.88,3,-1,5.946,-226,-2,0,2.07,r_re_order
38,5,re,55,kevin,127,0,2.31,3.12,0,-2,6.466,154,2,0,2.447,r_re_order
38,6,re,50,aaron,21,0,2.663,4.723,-1,6,3.249,220,3,0,2.761,r_re_order
38,7,re,75,andre,111,1,4.883,2.171,-3,-1,7.298,-117,0,0,3.142,r_re_order
38,8,re,85,zach,118,1,2.788,2.992,-4,3,4.707,-123,0,0,3.126,r_re_order
38,9,re,85,matt,137,1,2.832,3.202,-5,2,4.581,-131,-1,0,2.578,r_re_order
38,10,re,55,john,102,0,2.254,4.281,2,-2,4.021,84,-1,0,2.026,r_re_order
38,11,re,70,jordan,86,0,2.597,2.897,-3,-2,3.47,-49,-3,0,4.698,r_re_order
38,12,re,60,jacob,131,0,2.271,2.039,-3,-2,7.959,67,3,0,2.59,r_re_order
38,13,re,60,eric,1,0,2.503,2.227,-1,-5,2.514,51,-1,0,2.218,r_re_order
38,14,re,80,brando,60,1,3.959,2.176,0,-7,4.499,-140,-3,0,2.083,r_re_order
38,15,re,75,samuel,57,1,2.406,2.461,-1,2,3.278,-128,0,0,2.101,r_re_order
38,16,re,90,austin,65,1,2.746,2.25,-2,-3,3.468,-199,-4,0,2.332,r_re_order
38,17,re,65,daniel,96,0,7.018,2.29,5,0,2.935,-72,-2,0,2.126,r_re_order
38,18,re,80,ben,136,1,2.62,4.084,2,4,3.638,-56,1,0,3.11,r_re_order
38,19,re,50,cody,117,0,2.196,2.416,1,2,3.106,219,2,0,2.081,r_re_order
38,20,re,65,ryan,77,0,2.472,2.359,4,3,2.976,-68,-2,0,2.654,r_re_order
39,1,re,95,nichola,6,0,3.016,6.565,37,173,31.53,-146,113,0.5,8.897,re_r_order
39,2,re,85,zach,118,0,5.722,4.644,2,-2,3.757,-87,-106,0.25,2.703,re_r_order
39,3,re,95,dylan,143,0,2.646,2.709,62,49,3.671,-180,82,0.5,12.744,re_r_order
39,4,re,65,ryan,77,0,2.154,2.014,-91,-52,4.794,52,111,0.05,2.387,re_r_order
39,5,re,60,eric,1,0,2.25,3.618,44,51,3.095,130,144,0.5,2.293,re_r_order
39,6,re,90,chris,88,0,2.117,2.252,56,107,3.813,-93,33,0.5,2.328,re_r_order
39,7,re,75,samuel,57,0,1.706,2.735,46,44,6.49,65,40,0.15,4.246,re_r_order
39,8,re,55,john,102,0,1.775,3.128,49,49,3.337,124,151,0.25,3.466,re_r_order
39,9,re,80,brando,60,0,1.962,2.442,47,43,3.475,31,21,0.5,3.74,re_r_order
39,10,re,50,cody,117,0,1.779,2.484,57,52,4.558,198,87,0.4,3.696,re_r_order
39,11,re,65,daniel,96,0,2.168,2.309,38,35,5.472,17,31,0.2,2.903,re_r_order
39,12,re,90,austin,65,0,1.981,2.815,52,39,3.691,-90,40,0.3,3.097,re_r_order
39,13,re,80,ben,136,0,2.439,2.403,36,51,3.18,-27,35,0.3,2.381,re_r_order
39,14,re,60,jacob,131,0,2.409,2.512,-26,-35,2.998,95,93,0,2.898,re_r_order
39,15,re,70,justi,155,0,1.284,2.394,20,28,3.651,87,39,0.3,3.091,re_r_order
39,16,re,70,jordan,86,0,1.777,1.959,76,62,2.941,25,31,0.5,2.63,re_r_order
39,17,re,55,kevin,127,0,2.286,2.105,37,59,2.74,137,76,0.35,3.133,re_r_order
39,18,re,75,andre,111,0,3.327,3.358,31,21,3.513,-27,27,0.3,10.188,re_r_order
39,19,re,85,matt,137,0,2.605,2.206,18,28,2.793,21,20,0.1,3.557,re_r_order
39,20,re,50,aaron,21,0,3.292,2.984,64,62,6.341,189,81,0.5,4.144,re_r_order
40,1,re,70,justi,155,0,3.28,11.15,82,-1,8.055,38,40,0.2,6.044,r_re_order
40,2,re,90,chris,88,1,3.014,4.774,139,117,7.486,-189,-193,0.5,4.417,r_re_order
40,3,re,75,andre,111,1,2.927,4.653,-146,-116,13.33,-135,-29,0.15,4.731,r_re_order
40,4,re,50,aaron,21,0,3.455,3.574,176,185,6.22,224,220,0.5,3.539,r_re_order
40,5,re,80,ben,136,1,2.517,4.214,-128,-49,6.309,-143,-43,0.2,4.12,r_re_order
40,6,re,65,daniel,96,0,3.498,2.916,-137,-44,6.155,-148,-49,0.35,4.3,r_re_order
40,7,re,90,austin,65,1,3.327,6.901,133,0,8.127,-232,-132,0.4,3.376,r_re_order
40,8,re,65,ryan,77,0,2.77,3.796,121,76,8.477,149,31,0.45,3.963,r_re_order
40,9,re,70,jordan,86,0,3.661,4.255,199,184,9.373,27,-20,0.5,3.665,r_re_order
40,10,re,80,brando,60,1,3.209,6.898,4,1,7.105,-110,-13,0.25,3.215,r_re_order
40,11,re,85,matt,137,1,1.959,3.912,43,-3,5.742,-156,-20,0.35,3.936,r_re_order
40,12,re,75,samuel,57,1,2.852,4.172,147,78,5.591,-150,-21,0.45,3.243,r_re_order
40,13,re,50,cody,117,0,2.986,4.477,-49,-16,5.158,231,175,0.2,2.831,r_re_order
40,14,re,55,john,102,0,2.48,3.717,74,-2,4.757,184,140,0.35,6.237,r_re_order
40,15,re,95,dylan,143,1,3.529,4.028,-24,-1,10.739,-223,111,0.25,3.689,r_re_order
40,16,re,60,jacob,131,0,2.994,3.573,-27,1,4.615,145,53,0.25,3.534,r_re_order
40,17,re,85,zach,118,1,1.999,3.073,-88,-12,6.957,-200,-33,0.2,3.007,r_re_order
40,18,re,60,eric,1,0,2.507,3.028,194,51,7.693,201,88,0.4,3.494,r_re_order
40,19,re,95,nichola,6,1,2.651,2.688,203,180,5.4,-227,227,0.5,3.154,r_re_order
40,20,re,55,kevin,127,0,3.835,2.55,182,44,4.998,190,112,0.4,3.71,r_re_order
41,1,re,80,brando,60,1,4.61,8.381,-32,-41,6.294,-88,-119,0.1,5.025,r_re_order
41,2,re,50,aaron,21,0,3.285,4.351,-81,-71,4.43,120,115,0.2,5.498,r_re_order
41,3,re,60,eric,1,0,2.869,4.658,-60,-89,6.276,99,120,0.05,3.503,r_re_order
41,4,re,50,cody,117,0,1.985,6.014,97,83,6.345,126,132,0.25,5.118,r_re_order
41,5,re,65,daniel,96,0,3.376,12.194,-76,-83,12.855,102,52,0.2,3.557,r_re_order
41,6,re,85,matt,137,1,2.366,7.005,-37,-45,4.041,-69,-133,0.25,3.083,r_re_order
41,7,re,60,jacob,131,0,2.21,4.501,56,28,4.673,137,75,0.35,3.073,r_re_order
41,8,re,80,ben,136,1,3.349,8.315,48,37,4.988,-70,-144,0.25,3.149,r_re_order
41,9,re,75,andre,111,0,2.839,5.531,53,42,7.89,35,22,0.3,4.48,r_re_order
41,10,re,70,justi,155,0,4.009,5.317,-99,-120,8.365,49,17,0.1,3.756,r_re_order
41,11,re,55,john,102,0,3.056,4.862,-49,-103,4.706,136,81,0.25,4.66,r_re_order
41,12,re,90,chris,88,1,2.379,4.195,73,51,4.019,-87,-121,0.35,5.381,r_re_order
41,13,re,55,kevin,127,0,2.493,4.178,-38,-72,4.533,118,74,0.15,2.348,r_re_order
41,14,re,70,jordan,86,0,2.176,3.65,62,47,4.937,53,30,0.25,3.429,r_re_order
41,15,re,65,ryan,77,0,2.567,4.474,96,82,7.078,73,30,0.3,4.087,r_re_order
41,16,re,95,dylan,143,1,2.671,5.096,-6,-21,6.835,-69,-155,0.2,4.197,r_re_order
41,17,re,75,samuel,57,0,3.219,8.4,-38,-65,5.562,15,14,0.15,2.701,r_re_order
41,18,re,85,zach,118,1,2.688,5.652,72,27,6.84,-79,-130,0.3,4.6,r_re_order
41,19,re,90,austin,65,1,2.211,6.016,11,8,6.986,-102,-148,0.2,2.641,r_re_order
41,20,re,95,nichola,6,1,3.307,8.857,15,12,3.968,-101,-192,0.3,3.437,r_re_order
42,1,re,80,ben,136,0,3.58,5.688,23,13,4.049,-93,-73,0.25,6.42,re_r_order
42,2,re,60,eric,1,0,3.241,3.911,-84,-19,4.522,98,101,0.1,3.454,re_r_order
42,3,re,80,brando,60,0,2.556,8.258,-78,-8,7.637,-93,-14,0.2,4.183,re_r_order
42,4,re,60,jacob,131,0,3.547,5.483,-47,-8,4.179,46,18,0.25,2.128,re_r_order
42,5,re,75,andre,111,0,2.75,3.913,-45,-5,4.466,-57,-4,0.25,3.429,re_r_order
42,6,re,75,samuel,57,0,2.381,4.384,-38,-15,3.345,-42,-13,0.25,3.048,re_r_order
42,7,re,70,jordan,86,0,2.647,7.149,-39,-12,2.483,-42,-15,0.25,3.67,re_r_order
42,8,re,85,matt,137,0,2.798,3.335,-34,-7,3.046,-124,-13,0.25,3.427,re_r_order
42,9,re,65,daniel,96,0,2.456,2.883,-70,-10,3.172,40,5,0.25,3.279,re_r_order
42,10,re,85,zach,118,0,2.546,8.325,-25,-13,3.011,-110,-32,0.25,3.687,re_r_order
42,11,re,95,dylan,143,1,4.624,3.077,-63,-2,5.112,-240,0,0.25,1.927,re_r_order
42,12,re,95,nichola,6,1,3.585,4.556,-64,-4,5.147,-234,-10,0.25,2.666,re_r_order
42,13,re,90,chris,88,0,1.986,2.155,-74,-8,4.168,-148,-7,0.25,4.16,re_r_order
42,14,re,90,austin,65,0,5.187,4.262,-74,-2,3.344,-173,1,0.25,2.727,re_r_order
42,15,re,55,john,102,0,2.979,3.322,-64,-12,4.725,97,42,0.25,2.607,re_r_order
42,16,re,65,ryan,77,0,2.748,3.791,-82,-12,2.901,70,12,0.25,3.594,re_r_order
42,17,re,55,kevin,127,0,2.616,5.207,-3,-3,4.085,112,45,0.25,2.931,re_r_order
42,18,re,70,justi,155,0,2.46,3.432,-58,-9,7.43,-40,-7,0.25,2.144,re_r_order
42,19,re,50,aaron,21,0,2.284,3.065,-30,-5,5.501,193,108,0.25,2.264,re_r_order
42,20,re,50,cody,117,0,2.534,6.294,-8,-5,4.75,180,153,0.25,3.879,re_r_order
43,1,re,95,nichola,6,1,3.697,8.01,78,-61,5.204,-206,186,0.25,4.033,r_re_order
43,2,re,80,ben,136,1,7.076,5.524,108,-64,10.987,-151,84,0.35,4.106,r_re_order
43,3,re,60,eric,1,0,2.967,4.166,-22,-68,6.137,160,102,0.2,3.404,r_re_order
43,4,re,50,aaron,21,0,3.137,5.086,134,71,4.36,224,234,0.25,3.331,r_re_order
43,5,re,55,kevin,127,0,2.682,7.764,-192,79,4.757,186,167,0.05,4.354,r_re_order
43,6,re,75,samuel,57,0,2.942,3.91,-143,-69,5.947,-1,0,0.15,3.704,r_re_order
43,7,re,55,john,102,0,2.703,3.32,174,55,3.935,148,106,0.35,2.883,r_re_order
43,8,re,65,ryan,77,0,3.09,3.042,193,-46,5.644,170,-65,0.35,5.628,r_re_order
43,9,re,60,jacob,131,0,2.421,9.18,24,-42,3.011,139,124,0.2,3.949,r_re_order
43,10,re,90,austin,65,1,2.357,3.25,-59,-48,9.109,-139,77,0.25,2.922,r_re_order
43,11,re,70,justi,155,0,8.525,4.739,-40,-94,7.007,1,1,0.25,3.562,r_re_order
43,12,re,50,cody,117,0,3.263,6.469,97,-53,4.899,220,232,0.2,3.374,r_re_order
43,13,re,80,brando,60,1,3.027,3.719,-177,-139,8.012,-36,-43,0.15,3.555,r_re_order
43,14,re,95,dylan,143,1,2.627,2.883,-160,-134,8.345,-222,-35,0.1,3.967,r_re_order
43,15,re,65,daniel,96,0,2.98,4.308,100,-52,5.751,56,-35,0.25,3.246,r_re_order
43,16,re,85,zach,118,1,2.604,3.858,69,-69,4.46,-117,-91,0.25,10.938,r_re_order
43,17,re,75,andre,111,0,2.777,7.419,-75,-78,4.459,-1,-2,0.2,3.407,r_re_order
43,18,re,90,chris,88,1,2.342,2.847,91,-26,3.833,-222,148,0.3,2.739,r_re_order
43,19,re,85,matt,137,1,3.02,2.556,-103,-108,6.902,0,-159,0.15,3.079,r_re_order
43,20,re,70,jordan,86,0,3.94,3.201,62,-78,6.865,118,-38,0.25,3.285,r_re_order
44,1,re,70,justi,155,0,2.453,6.589,-19,75,4.761,15,29,0.1,4.404,r_re_order
44,2,re,90,chris,88,1,2.852,4.337,-171,55,3.381,-173,80,0.05,3.331,r_re_order
44,3,re,55,john,102,0,2.115,4.751,111,87,3.716,236,238,0.25,2.548,r_re_order
44,4,re,50,cody,117,0,3.156,2.888,-45,73,4.157,244,246,0.15,6.257,r_re_order
44,5,re,75,samuel,57,0,2.595,4.145,-10,79,5.698,8,17,0.15,2.403,r_re_order
44,6,re,95,nichola,6,1,2.535,4.086,9,88,4.963,-244,-16,0.2,3.949,r_re_order
44,7,re,65,daniel,96,0,2.321,3.151,-179,125,4.305,12,46,0.15,2.686,r_re_order
44,8,re,75,andre,111,0,2.045,2.812,-32,133,4.232,27,38,0.05,3.932,r_re_order
44,9,re,55,kevin,127,0,1.998,2.326,-28,78,3.007,233,231,0.15,3.161,r_re_order
44,10,re,95,dylan,143,0,2.968,3.891,-26,154,4.816,-243,242,0.1,2.827,r_re_order
44,11,re,80,ben,136,0,2.046,2.712,22,144,3.635,-47,58,0.2,3.128,r_re_order
44,12,re,60,jacob,131,0,2.137,2.413,-38,37,3.254,42,124,0.15,2.943,r_re_order
44,13,re,85,zach,118,1,2.662,3.491,18,65,3.001,-84,45,0.1,2.559,r_re_order
44,14,re,65,ryan,77,0,2.298,2.449,36,-43,4.075,12,13,0.2,2.698,r_re_order
44,15,re,85,matt,137,1,3.162,2.244,-159,81,4.001,-144,73,0.1,3.071,r_re_order
44,16,re,70,jordan,86,0,2.343,2.711,-77,-51,2.982,-33,36,0.05,3.358,r_re_order
44,17,re,60,eric,1,0,1.923,2.201,39,62,2.857,158,214,0.2,2.56,r_re_order
44,18,re,50,aaron,21,0,1.954,2.81,-37,67,3.648,243,243,0.15,2.787,r_re_order
44,19,re,90,austin,65,1,3.093,2.625,-38,169,3.133,-11,-176,0.2,2.363,r_re_order
44,20,re,80,brando,60,1,3.431,2.434,167,178,4.4,-78,82,0.3,2.93,r_re_order
45,1,re,55,john,102,0,3.058,7.866,78,59,4.557,105,55,0.35,4.253,r_re_order
45,2,re,50,cody,117,0,33.177,3.906,30,55,4.155,224,71,0.35,1.952,r_re_order
45,3,re,60,eric,1,0,1.972,2.511,66,90,2.607,116,60,0.4,3.026,r_re_order
45,4,re,80,brando,60,0,2.552,1.906,47,93,4.417,-131,-64,0.4,3.017,r_re_order
45,5,re,90,austin,65,1,2.23,2.026,72,80,3.464,-209,-229,0.4,2.42,r_re_order
45,6,re,85,matt,137,1,1.693,4.535,76,87,3.47,-230,-220,0.4,2.149,r_re_order
45,7,re,75,andre,111,0,1.852,2.117,78,80,3.02,-106,-8,0.4,1.905,r_re_order
45,8,re,55,kevin,127,0,2.36,2.682,64,51,2.723,107,96,0.4,1.64,r_re_order
45,9,re,75,samuel,57,0,2.355,5.478,67,89,2.968,-145,-49,0.4,2.02,r_re_order
45,10,re,85,zach,118,1,1.114,2.112,65,54,2.09,-223,-202,0.4,8.271,r_re_order
45,11,re,50,aaron,21,0,1.367,3.18,61,20,2.536,187,200,0.35,4.08,r_re_order
45,12,re,60,jacob,131,0,1.598,2.513,63,57,2.291,107,123,0.4,1.954,r_re_order
45,13,re,80,ben,136,0,3.156,2.222,85,104,2.439,-120,-122,0.4,1.941,r_re_order
45,14,re,95,nichola,6,1,1.664,2.293,44,81,4.402,-241,-232,0.4,24.896,r_re_order
45,15,re,90,chris,88,1,1.939,1.854,88,72,2.634,-228,-245,0.45,2.3,r_re_order
45,16,re,95,dylan,143,1,14.867,2.122,79,56,4.148,-223,-228,0.4,1.686,r_re_order
45,17,re,65,ryan,77,0,1.732,2.51,70,75,3.762,60,-17,0.4,1.677,r_re_order
45,18,re,65,daniel,96,0,1.861,2.033,48,62,3.239,67,-36,0.4,1.513,r_re_order
45,19,re,70,jordan,86,0,1.751,2.447,22,39,2.227,-49,-30,0.4,1.905,r_re_order
45,20,re,70,justi,155,0,1.129,1.785,61,67,2.019,-87,-28,0.4,1.552,r_re_order
46,1,re,65,ryan,77,0,2.437,4.943,0,48,5.778,79,85,0.2,3.564,r_re_order
46,2,re,50,cody,117,0,2.293,3.928,28,71,6.203,8,174,0.35,2.038,r_re_order
46,3,re,60,jacob,131,0,2.123,2.814,2,146,3.062,16,112,0.4,2.627,r_re_order
46,4,re,55,kevin,127,0,2.044,3.084,25,-55,2.759,28,106,0.15,2.175,r_re_order
46,5,re,80,ben,136,0,2.609,2.2,18,84,4.328,5,86,0.35,2.3,r_re_order
46,6,re,55,john,102,0,2.254,3.074,-8,-10,4.134,31,93,0.25,2.238,r_re_order
46,7,re,85,matt,137,0,2.606,2.801,48,47,3.626,0,-48,0.35,2.368,r_re_order
46,8,re,65,daniel,96,0,1.508,2.588,11,72,4.817,25,97,0.35,2.5,r_re_order
46,9,re,90,austin,65,0,1.492,3.045,15,68,2.371,25,-110,0.25,2.3,r_re_order
46,10,re,85,zach,118,0,2.288,4.013,48,43,2.271,25,-62,0.35,1.956,r_re_order
46,11,re,50,aaron,21,0,2.333,2.03,8,-73,2.522,-5,184,0.15,3.911,r_re_order
46,12,re,70,jordan,86,0,2.551,2.301,2,102,3.079,5,81,0.4,2.621,r_re_order
46,13,re,75,andre,111,0,2.183,2.283,31,81,2.735,2,27,0.15,2.324,r_re_order
46,14,re,70,justi,155,0,2.038,2.349,33,82,2.6,21,58,0.3,3.032,r_re_order
46,15,re,60,eric,1,0,2.019,2.181,8,34,2.176,34,99,0.2,2.169,r_re_order
46,16,re,95,nichola,6,0,1.6,2.187,17,27,3.563,40,-200,0.2,3.752,r_re_order
46,17,re,90,chris,88,0,2.391,2.117,14,75,2.348,36,-35,0.25,2.218,r_re_order
46,18,re,75,samuel,57,0,1.64,2.471,0,13,3.256,22,93,0.2,3.092,r_re_order
46,19,re,80,brando,60,0,2.356,2.735,7,76,3.956,7,78,0.35,2.049,r_re_order
46,20,re,95,dylan,143,0,2.026,2.13,-2,8,2.492,7,-216,0.4,1.964,r_re_order
47,1,re,55,john,102,0,2.83,7.514,207,140,17.412,205,135,0.4,2.858,r_re_order
47,2,re,70,justi,155,0,2.684,5.175,-140,140,5.537,-126,83,0.15,2.688,r_re_order
47,3,re,65,ryan,77,0,6.119,4.678,202,168,6.946,187,148,0.4,2.858,r_re_order
47,4,re,55,kevin,127,0,2.514,3.106,-94,-72,6.95,210,218,0.2,3.922,r_re_order
47,5,re,50,cody,117,0,3.349,4.688,-61,-57,4.038,246,245,0.15,2.425,r_re_order
47,6,re,65,daniel,96,0,2.842,4.357,78,88,3.477,68,85,0.25,6.777,r_re_order
47,7,re,95,dylan,143,1,4.717,5.468,140,152,6.361,206,-49,0.35,2.908,r_re_order
47,8,re,90,austin,65,1,6.052,3.297,57,110,8.044,-208,162,0.3,4.933,r_re_order
47,9,re,80,ben,136,0,2.815,2.802,171,197,4.437,-42,-31,0.45,2.37,r_re_order
47,10,re,60,jacob,131,0,3.843,3.495,-78,-57,3.707,169,208,0.15,3.747,r_re_order
47,11,re,85,zach,118,1,3.343,7.49,128,144,5.777,-133,-148,0.35,6.103,r_re_order
47,12,re,80,brando,60,0,2.766,5.846,162,184,4.592,-136,-136,0.4,3.799,r_re_order
47,13,re,50,aaron,21,0,2.642,5.525,-186,136,3.629,246,241,0.1,3.152,r_re_order
47,14,re,75,samuel,57,0,2.564,5.731,228,224,6.413,-46,44,0.5,42.036,r_re_order
47,15,re,75,andre,111,0,2.215,5.586,-43,49,5.336,60,58,0.25,3.288,r_re_order
47,16,re,90,chris,88,1,2.771,7.321,-70,73,4.876,-212,145,0.25,3.196,r_re_order
47,17,re,95,nichola,6,1,2.968,23.222,-72,78,4.977,-219,205,0.25,2.758,r_re_order
47,18,re,70,jordan,86,0,2.308,4.504,-73,-47,3.534,51,56,0.2,4.126,r_re_order
47,19,re,85,matt,137,1,3.277,3.827,-53,-50,5.124,-62,49,0.15,5.823,r_re_order
47,20,re,60,eric,1,0,2.843,3.217,-50,-50,3.543,205,222,0.15,26.855,r_re_order
48,1,re,90,chris,88,1,8.422,6.96,-61,16,11.738,-79,0,0.1,6.701,re_r_order
48,2,re,85,zach,118,0,3.659,5.37,1,2,8.733,-68,1,0.2,7.75,re_r_order
48,3,re,85,matt,137,0,3.514,5.556,-2,-38,6.102,-54,1,0.2,5.214,re_r_order
48,4,re,55,john,102,0,3.25,5.788,40,0,8.806,176,39,0.4,4.14,re_r_order
48,5,re,50,aaron,21,0,3.597,6.882,2,20,6.072,222,129,0.3,4.257,re_r_order
48,6,re,75,andre,111,0,3.253,4.823,-11,-23,5.945,30,3,0.1,4.833,re_r_order
48,7,re,50,cody,117,0,3.319,5.198,0,-2,6.067,227,152,0.1,5.517,re_r_order
48,8,re,75,samuel,57,0,3.686,4.931,0,-1,6.086,106,16,0.1,5.172,re_r_order
48,9,re,55,kevin,127,0,3.048,4.201,-29,2,5.555,222,128,0.05,5.365,re_r_order
48,10,re,90,austin,65,1,4.185,6.483,22,-17,7.665,-94,27,0.2,3.897,re_r_order
48,11,re,60,eric,1,0,2.949,5.355,-19,-15,5.892,227,101,0.15,5.068,re_r_order
48,12,re,80,brando,60,0,3.13,5.248,68,-11,7.542,-20,-9,0.2,3.944,re_r_order
48,13,re,60,jacob,131,0,3.044,6.22,-27,-16,4.917,182,104,0.1,3.468,re_r_order
48,14,re,65,ryan,77,0,2.552,9.192,39,-16,4.89,99,27,0.3,3.826,re_r_order
48,15,re,95,dylan,143,1,2.753,5.673,-27,-32,6.279,-171,-12,0.05,4.025,re_r_order
48,16,re,70,justi,155,0,2.652,5.173,-1,-16,4.983,119,24,0.15,3.689,re_r_order
48,17,re,80,ben,136,0,3.267,4.387,78,-20,7.739,15,-6,0.3,5.1,re_r_order
48,18,re,70,jordan,86,0,2.47,4.135,-47,-11,6.055,102,-17,0.1,3.759,re_r_order
48,19,re,65,daniel,96,0,2.843,5.359,0,-35,5.276,93,0,0.1,4.872,re_r_order
48,20,re,95,nichola,6,1,2.755,5.314,-22,-16,5.291,-125,-12,0.05,5.798,re_r_order
49,1,re,55,kevin,127,0,4.99,5.978,2,0,5.016,219,215,0.15,6.838,re_r_order
49,2,re,95,nichola,6,0,6.154,4.358,1,-2,5.034,-201,-223,0.15,4.47,re_r_order
49,3,re,85,matt,137,0,4.248,4.327,-1,-1,5.315,-196,207,0.15,3.881,re_r_order
49,4,re,55,john,102,0,3.509,4.381,1,0,3.361,200,220,0.3,4.609,re_r_order
49,5,re,65,ryan,77,0,3.29,4.162,1,0,6.365,129,162,0.15,4.824,re_r_order
49,6,re,85,zach,118,0,4.218,4.307,3,-1,10.176,-157,161,0.15,5.065,re_r_order
49,7,re,80,ben,136,0,3.291,4.895,2,0,4.407,-163,139,0.15,3.892,re_r_order
49,8,re,70,jordan,86,0,3.262,4.055,4,2,3.887,-124,146,0.15,3.265,re_r_order
49,9,re,70,justi,155,0,3.756,3.859,3,0,6.646,-131,118,0.15,3.635,re_r_order
49,10,re,60,jacob,131,0,3.154,3.91,2,0,5.313,112,121,0.15,3.361,re_r_order
49,11,re,95,dylan,143,0,4.333,3.604,3,-2,5.621,-225,233,0.15,3.714,re_r_order
49,12,re,60,eric,1,0,3.339,3.876,3,2,3.741,208,198,0.15,3.652,re_r_order
49,13,re,75,samuel,57,0,3.614,3.771,1,-3,4.199,-132,96,0.15,4.117,re_r_order
49,14,re,75,andre,111,0,3.588,3.938,0,0,3.663,-105,89,0.15,3.934,re_r_order
49,15,re,90,austin,65,0,3.459,4.037,0,0,3.337,-222,112,0.15,3.729,re_r_order
49,16,re,65,daniel,96,0,2.825,4.904,-2,0,5.469,40,104,0.15,4.355,re_r_order
49,17,re,50,cody,117,0,3.006,4.026,0,2,4.563,219,217,0.15,3.711,re_r_order
49,18,re,80,brando,60,0,3.2,4.22,0,-1,3.006,-116,82,0.15,3.406,re_r_order
49,19,re,90,chris,88,0,3.508,3.906,-1,1,5.632,-189,160,0.15,4.775,re_r_order
49,20,re,50,aaron,21,0,3.112,6.117,2,0,4.174,213,234,0.15,3.175,re_r_order
50,1,re,50,aaron,21,0,2.785,6.974,-131,102,7.522,230,235,0.2,8.112,r_re_order
50,2,re,70,justi,155,0,3.044,3.806,-234,2,9.761,77,119,0.1,4.775,r_re_order
50,3,re,80,ben,136,0,2.323,5.347,183,159,12.61,-167,145,0.4,3.868,r_re_order
50,4,re,75,andre,111,0,2.119,10.819,60,0,8.619,-237,238,0.25,5.046,r_re_order
50,5,re,95,dylan,143,0,2.16,4.415,-237,244,12.08,1,244,0.05,3.854,r_re_order
50,6,re,80,brando,60,0,3.571,4.655,34,2,7.189,-64,-53,0.3,5.479,r_re_order
50,7,re,70,jordan,86,0,2.01,4.33,-240,242,4.835,127,242,0.05,3.97,r_re_order
50,8,re,85,zach,118,0,1.9,5.897,-50,2,7.94,-30,246,0.15,3.342,r_re_order
50,9,re,90,austin,65,0,1.972,7.429,51,-1,6.558,-234,113,0.25,5.637,r_re_order
50,10,re,85,matt,137,0,2.2,4.262,-58,0,10.72,-237,186,0.4,4.188,r_re_order
50,11,re,75,samuel,57,0,2.525,3.551,1,0,7.974,-33,242,0.25,3.445,r_re_order
50,12,re,95,nichola,6,0,2.389,5.911,-111,2,8.567,-246,246,0.15,3.657,r_re_order
50,13,re,65,ryan,77,0,2.128,4.109,-36,-58,8.407,31,-44,0.15,3.29,r_re_order
50,14,re,50,cody,117,0,2.762,6.616,85,-86,6.501,247,168,0.4,4.095,r_re_order
50,15,re,55,kevin,127,0,1.896,3.633,-240,-42,7.598,219,67,0.05,3.407,r_re_order
50,16,re,65,daniel,96,0,2.299,8.246,122,-84,8.581,31,-58,0.5,5.041,r_re_order
50,17,re,90,chris,88,0,2.059,3.941,-198,-46,6.454,-242,243,0.1,4.376,r_re_order
50,18,re,60,eric,1,0,1.987,5.649,-83,-65,5.882,210,56,0.15,7.288,r_re_order
50,19,re,55,john,102,0,1.77,4.437,-159,-132,4.729,230,-31,0.1,3.209,r_re_order
50,20,re,60,jacob,131,0,1.976,4.26,-44,-137,6.311,186,-81,0.3,6.771,r_re_order
51,1,re,70,jordan,86,0,3.296,4.056,153,162,10.878,-71,0,0.5,7.196,re_r_order
51,2,re,75,andre,111,0,3.984,4.905,-213,147,7.215,30,15,0.15,4.002,re_r_order
51,3,re,70,justi,155,0,2.03,6.11,56,70,4.558,107,143,0.3,5.129,re_r_order
51,4,re,95,dylan,143,1,1.8,3.541,-153,150,3.898,-225,230,0.05,4.289,re_r_order
51,5,re,55,kevin,127,0,1.695,2.275,125,80,2.874,211,228,0.3,5.054,re_r_order
51,6,re,80,brando,60,1,2.727,3.123,-96,74,3.664,-137,134,0.25,3.22,re_r_order
51,7,re,90,austin,65,1,1.906,3.975,44,41,3.934,-215,192,0.4,3.823,re_r_order
51,8,re,75,samuel,57,1,1.241,4.411,107,18,2.575,-106,100,0.35,2.954,re_r_order
51,9,re,65,ryan,77,0,1.797,3.317,-109,99,2.985,122,110,0.15,3.124,re_r_order
51,10,re,55,john,102,0,2.119,2.956,-1,-60,2.386,199,215,0.25,2.978,re_r_order
51,11,re,95,nichola,6,1,1.67,2.796,78,80,3.393,-211,229,0.4,3.24,re_r_order
51,12,re,65,daniel,96,0,2.19,2.099,141,53,2.574,74,50,0.3,79.627,re_r_order
51,13,re,80,ben,136,1,2.069,1.948,136,56,3,-194,-64,0.35,2.368,re_r_order
51,14,re,90,chris,88,1,1.687,2.977,-129,42,4.194,-222,215,0.15,4.206,re_r_order
51,15,re,60,eric,1,0,2.555,2.427,-160,105,2.022,138,91,0.15,2.205,re_r_order
51,16,re,50,aaron,21,0,1.605,1.899,134,74,2.456,222,213,0.3,2.781,re_r_order
51,17,re,60,jacob,131,0,2.506,4.279,-134,-37,2.233,132,118,0.1,1.933,re_r_order
51,18,re,85,zach,118,1,1.422,24.513,132,69,5.698,-139,-55,0.15,2.915,re_r_order
51,19,re,50,cody,117,0,1.494,3.36,155,88,2.549,235,208,0.3,2.534,re_r_order
51,20,re,85,matt,137,1,4.687,4.383,129,53,6.708,142,171,0.15,2.321,re_r_order
52,1,re,70,justi,155,1,3.788,11.265,-168,-106,5.785,-194,-67,0.1,4.791,r_re_order
52,2,re,80,ben,136,1,3.057,4.709,128,59,5.682,-185,-76,0.4,3.705,r_re_order
52,3,re,85,matt,137,1,2.104,3.881,74,35,5.155,-205,139,0.4,4.624,r_re_order
52,4,re,60,jacob,131,0,2.873,6.468,-145,57,6.375,-59,-15,0.3,4.384,r_re_order
52,5,re,80,brando,60,1,2.127,3.717,184,83,3.962,-200,-29,0.5,4.182,r_re_order
52,6,re,75,andre,111,1,3.298,4.79,-97,-47,4.765,-196,-25,0.35,4.763,r_re_order
52,7,re,90,austin,65,1,3.961,4.034,-170,-21,7.485,-191,-34,0.1,5.032,r_re_order
52,8,re,85,zach,118,1,2.632,4.575,35,-6,4.015,-175,-50,0.5,3.658,r_re_order
52,9,re,95,nichola,6,1,3.056,4.561,-43,-17,6.44,-242,-241,0.4,4.725,r_re_order
52,10,re,65,daniel,96,1,3.423,3.984,22,-4,4.318,-17,1,0.5,3.743,r_re_order
52,11,re,65,ryan,77,0,5.149,3.756,-40,-7,3.914,-23,0,0.4,7.282,r_re_order
52,12,re,55,john,102,0,2.398,5.34,223,66,4.655,133,-14,0.5,4.184,r_re_order
52,13,re,55,kevin,127,0,1.979,3.973,-127,-71,3.929,113,-40,0.2,6.659,r_re_order
52,14,re,70,jordan,86,1,2.287,3.855,110,-38,4.115,-33,-201,0.45,4.196,r_re_order
52,15,re,95,dylan,143,1,4.89,2.83,-50,-74,4.289,-229,-200,0.3,3.394,r_re_order
52,16,re,75,samuel,57,1,3.974,4.536,219,-25,3.706,-224,-93,0.5,3.164,r_re_order
52,17,re,60,eric,1,0,1.888,5.462,204,56,3.706,141,9,0.5,5.112,r_re_order
52,18,re,50,aaron,21,0,2.548,3.259,-120,-25,6.534,213,162,0.1,4.209,r_re_order
52,19,re,90,chris,88,1,2.701,3.753,-83,-45,5.156,-187,-232,0.25,3.66,r_re_order
52,20,re,50,cody,117,0,2.737,4.557,-125,34,5.49,131,162,0.4,3.587,r_re_order
53,1,re,55,kevin,127,0,7.85,11.328,-87,35,11.356,135,60,0.15,7.064,re_r_order
53,2,re,80,brando,60,0,8.073,7.901,31,6,8.544,-97,17,0.3,5.123,re_r_order
53,3,re,65,daniel,96,0,4.431,4.592,-2,0,5.373,34,14,0.3,4.715,re_r_order
53,4,re,85,zach,118,1,4.446,7.749,74,27,4.938,-182,42,0.25,4.994,re_r_order
53,5,re,90,austin,65,1,2.722,37.338,39,21,6.528,-225,120,0.3,6.93,re_r_order
53,6,re,75,andre,111,0,3.035,6.95,-18,-21,5.309,-31,14,0.1,5.023,re_r_order
53,7,re,50,aaron,21,0,2.054,5.346,38,13,7.035,222,124,0.2,3.112,re_r_order
53,8,re,75,samuel,57,0,1.981,8.75,75,27,4.07,-89,44,0.3,4.1,re_r_order
53,9,re,80,ben,136,1,4.466,6.673,130,74,4.996,-161,82,0.45,2.973,re_r_order
53,10,re,85,matt,137,1,3.765,8.854,-89,33,4.044,-134,52,0.1,3.743,re_r_order
53,11,re,70,justi,155,0,2.141,3.592,17,19,3.997,9,13,0.3,7.018,re_r_order
53,12,re,70,jordan,86,0,2.964,4.174,-10,6,4.519,21,15,0.25,24.334,re_r_order
53,13,re,60,jacob,131,0,2.546,3.299,-19,8,3.578,93,45,0.25,7.363,re_r_order
53,14,re,65,ryan,77,0,4.505,4.765,26,27,4.64,100,25,0.3,5.615,re_r_order
53,15,re,50,cody,117,0,1.806,3.435,20,18,3.527,187,98,0.35,4.386,re_r_order
53,16,re,95,dylan,143,1,2.94,7.127,-36,31,4.694,-201,117,0.35,6.057,re_r_order
53,17,re,95,nichola,6,1,2.31,6.763,14,32,3.596,-219,105,0.3,6.461,re_r_order
53,18,re,55,john,102,0,4.871,6.943,66,-19,7.609,130,99,0.25,3.695,re_r_order
53,19,re,60,eric,1,0,2.45,3.829,-52,21,4.258,155,80,0.2,2.692,re_r_order
53,20,re,90,chris,88,1,6.479,3.741,17,26,3.06,-229,122,0.2,8.397,re_r_order
54,1,re,95,dylan,143,1,3.541,7.162,-65,-95,5.76,-211,-230,0.05,3.183,r_re_order
54,2,re,70,jordan,86,0,3.549,4.872,-191,-237,7.865,159,-153,0.05,3.422,r_re_order
54,3,re,50,aaron,21,0,2.306,4.682,-181,-209,6.23,167,35,0.1,3.183,r_re_order
54,4,re,70,justi,155,0,2.378,10.781,70,16,3.945,56,-34,0.15,8.018,r_re_order
54,5,re,65,daniel,96,0,2.343,2.886,-71,-97,3.249,75,-21,0.2,2.888,r_re_order
54,6,re,60,eric,1,0,2.078,4.127,92,55,3.932,95,38,0.35,2.779,r_re_order
54,7,re,75,andre,111,1,45.06,2.288,-61,-80,3.688,30,-25,0.15,70.807,r_re_order
54,8,re,80,ben,136,1,3.833,3.165,41,38,3.835,-43,-108,0.3,2.707,r_re_order
54,9,re,85,zach,118,1,2.367,5.518,30,19,5.52,-161,-174,0.3,2.803,r_re_order
54,10,re,95,nichola,6,1,2.024,4.974,29,-121,4.52,-221,-236,0.2,2.77,r_re_order
54,11,re,55,john,102,0,2.053,3.318,50,16,4.294,195,62,0.35,4.427,r_re_order
54,12,re,55,kevin,127,0,1.599,2.556,-54,-101,3.807,131,71,0.15,20.584,r_re_order
54,13,re,90,austin,65,1,2.513,2.552,46,40,2.559,-41,-152,0.4,2.658,r_re_order
54,14,re,85,matt,137,1,2.234,3.267,53,51,3.572,-104,-183,0.35,3.945,r_re_order
54,15,re,75,samuel,57,1,2.566,2.399,-70,-182,2.752,-103,-215,0.1,2.724,r_re_order
54,16,re,50,cody,117,0,1.832,2.385,66,31,2.956,61,64,0.4,3.482,r_re_order
54,17,re,60,jacob,131,0,2.286,2.316,-51,-64,2.961,55,28,0.25,76.871,r_re_order
54,18,re,65,ryan,77,0,1.861,2.586,21,10,2.922,-39,-28,0.35,2.353,r_re_order
54,19,re,80,brando,60,1,2.103,2.225,55,29,2.334,-55,-100,0.4,3.193,r_re_order
54,20,re,90,chris,88,1,2.122,3.154,41,34,3.152,-143,-166,0.35,3.117,r_re_order
55,1,re,60,eric,1,0,3.015,9.224,-34,-29,8.643,102,30,0.2,9.971,re_r_order
55,2,re,95,nichola,6,1,2.108,6.312,-153,-14,10.177,-218,108,0.1,11.095,re_r_order
55,3,re,85,matt,137,1,3.766,3.501,62,2,5.214,-121,27,0.25,6.068,re_r_order
55,4,re,75,andre,111,0,1.924,3.232,26,0,7.873,32,27,0.2,5.942,re_r_order
55,5,re,85,zach,118,1,3.41,3.611,97,0,4.51,-150,28,0.3,7.334,re_r_order
55,6,re,65,ryan,77,0,2.149,6.444,54,44,5.36,133,110,0.3,4.102,re_r_order
55,7,re,90,austin,65,1,4.455,3.389,23,12,4.119,-158,21,0.25,5.625,re_r_order
55,8,re,70,jordan,86,0,1.684,4.794,-125,13,3.265,76,52,0.1,4.366,re_r_order
55,9,re,55,kevin,127,0,1.864,3.601,-87,13,6.871,202,90,0.1,4.8,re_r_order
55,10,re,50,aaron,21,0,2.581,2.717,0,0,4.999,236,129,0.2,4.29,re_r_order
55,11,re,80,ben,136,1,3.037,2.059,-85,-23,3.404,-38,-29,0.15,7.669,re_r_order
55,12,re,55,john,102,0,1.816,5.857,35,16,3.421,165,44,0.25,4.903,re_r_order
55,13,re,90,chris,88,1,2.27,5.183,10,10,3.552,-190,-21,0.2,3.53,re_r_order
55,14,re,60,jacob,131,0,2.079,1.889,-78,-29,2.825,125,45,0.15,4.634,re_r_order
55,15,re,95,dylan,143,1,2.52,3.623,-191,45,3.681,-214,80,0.05,5.784,re_r_order
55,16,re,70,justi,155,0,1.899,5.592,-182,17,3.84,48,23,0.1,4.508,re_r_order
55,17,re,75,samuel,57,1,1.687,2.308,-155,20,6.233,16,10,0.1,4.215,re_r_order
55,18,re,50,cody,117,0,2.346,4.466,-2,0,3.801,228,93,0.2,3.55,re_r_order
55,19,re,80,brando,60,1,3.096,3.556,-6,3,3.575,-63,5,0.25,6.086,re_r_order
55,20,re,65,daniel,96,0,2.054,5.966,-65,-2,3.244,103,47,0.15,4.537,re_r_order
56,1,re,85,matt,137,1,3.521,5.023,-246,144,6.6,-246,0,0,3.87,re_r_order
56,2,re,80,brando,60,1,3.496,5.529,-246,34,5.778,-245,112,0.2,3.888,re_r_order
56,3,re,55,john,102,0,3.441,3.221,247,101,5.118,242,127,0.5,3.705,re_r_order
56,4,re,80,ben,136,1,2.837,4.935,235,90,7.439,-242,119,0.4,4.13,re_r_order
56,5,re,95,dylan,143,0,2.538,3.252,-241,1,3.865,-244,45,0,3.349,re_r_order
56,6,re,70,jordan,86,1,2.945,4.935,-156,22,5.029,-242,37,0.25,2.598,re_r_order
56,7,re,70,justi,155,0,2.726,3.639,-240,32,5.398,-242,8,0,3.629,re_r_order
56,8,re,50,aaron,21,0,3.421,5.764,-220,-37,4.673,241,122,0.25,2.659,re_r_order
56,9,re,90,austin,65,1,5.761,5.583,-207,-36,4.762,-240,95,0.3,4.422,re_r_order
56,10,re,65,daniel,96,0,2.199,5.172,-243,27,5.311,-243,16,0,3.75,re_r_order
56,11,re,95,nichola,6,1,2.748,3.961,242,56,5.034,-235,226,0.5,3.681,re_r_order
56,12,re,90,chris,88,1,2.35,7.742,-232,21,3.817,-238,171,0.25,2.535,re_r_order
56,13,re,65,ryan,77,0,2.277,7.785,193,36,5.893,-169,22,0.45,4.189,re_r_order
56,14,re,55,kevin,127,0,2.287,4.779,-246,-30,4.508,238,223,0,3.182,re_r_order
56,15,re,85,zach,118,1,2.198,6.523,-143,-20,3.767,-240,119,0.3,3.035,re_r_order
56,16,re,75,samuel,57,0,2.177,8.896,230,29,6.301,-235,28,0.4,3.13,re_r_order
56,17,re,50,cody,117,0,2.302,4.873,-219,18,3.632,241,218,0.25,3.505,re_r_order
56,18,re,60,jacob,131,0,2.164,4.757,6,55,7.987,229,37,0.35,2.977,re_r_order
56,19,re,60,eric,1,0,2.182,13.267,189,31,5.217,229,31,0.4,124.183,re_r_order
56,20,re,75,andre,111,0,2.571,4.277,-178,24,4.869,-240,67,0.2,2.782,re_r_order
57,1,re,65,daniel,96,0,12.504,11.257,-1,0,11.783,-107,-152,0.3,17.581,re_r_order
57,2,re,90,chris,88,1,4.368,4.072,0,3,5.38,-233,-3,0.25,6.414,re_r_order
57,3,re,60,jacob,131,0,4.312,5.166,0,-2,6.655,122,0,0.1,9.53,re_r_order
57,4,re,65,ryan,77,0,3.791,3.555,1,-1,8.158,1,-2,0.1,6.463,re_r_order
57,5,re,95,dylan,143,1,3.355,4.671,-235,2,8.837,-232,1,0,7.194,re_r_order
57,6,re,60,eric,1,0,2.78,3.36,2,3,5.457,5,0,0.2,4.779,re_r_order
57,7,re,50,cody,117,0,2.508,3.585,111,1,6.031,234,-2,0.4,5.5,re_r_order
57,8,re,80,ben,136,1,5.185,4.367,1,-3,4.869,-235,3,0.2,3.778,re_r_order
57,9,re,80,brando,60,1,3.171,6.036,-240,2,4.601,-231,0,0,5.77,re_r_order
57,10,re,75,andre,111,1,3.884,4.527,-237,-6,6.878,-232,-1,0,5.142,re_r_order
57,11,re,55,john,102,0,3.484,4.56,113,-2,4.512,109,1,0.5,6.533,re_r_order
57,12,re,50,aaron,21,0,2.425,4.947,-148,2,4.183,239,1,0,5.354,re_r_order
57,13,re,90,austin,65,1,2.919,23.279,5,0,3.464,-237,-2,0.25,4.634,re_r_order
57,14,re,85,matt,137,1,3.389,3.672,-233,-3,5.123,-233,-1,0.05,4.549,re_r_order
57,15,re,75,samuel,57,1,2.808,28.981,2,0,3.509,-125,-1,0.15,9.399,re_r_order
57,16,re,70,justi,155,1,5.552,4.995,0,0,3.691,6,-1,0.1,8.704,re_r_order
57,17,re,85,zach,118,1,2.547,4.373,3,3,6.188,-234,0,0.4,6.004,re_r_order
57,18,re,95,nichola,6,1,2.967,9.004,-139,0,8.204,-220,201,0.1,11.3,re_r_order
57,19,re,70,jordan,86,1,3.023,9.436,5,4,7.064,-70,60,0.2,5.555,re_r_order
57,20,re,55,kevin,127,0,2.817,3.746,-240,3,7.575,89,-1,0.05,8.63,re_r_order
58,1,re,75,andre,111,0,3.246,5.056,0,2,6.064,-194,0,0.5,4.883,re_r_order
58,2,re,75,samuel,57,0,2.213,3.04,0,0,3.998,-206,1,0.5,1.824,re_r_order
58,3,re,50,aaron,21,0,2.083,3.3,-6,-3,5.555,36,-3,0.5,2.466,re_r_order
58,4,re,95,nichola,6,0,5.134,3.207,-21,-3,6.556,-241,-4,0.3,2.6,re_r_order
58,5,re,60,jacob,131,0,2.139,2.707,1,2,3.758,-79,-2,0.25,2.668,re_r_order
58,6,re,80,ben,136,0,7.829,3.111,8,-5,3.552,-179,-4,0.4,2.631,re_r_order
58,7,re,85,matt,137,0,2.066,2.976,-2,0,2.9,-237,1,0.5,2.29,re_r_order
58,8,re,95,dylan,143,0,2.112,2.46,-87,-7,3.37,-244,-3,0.15,2.826,re_r_order
58,9,re,80,brando,60,0,2.117,3.642,-29,-3,2.675,-207,-2,0.4,2.483,re_r_order
58,10,re,85,zach,118,0,3.579,2.702,8,-3,2.365,-232,-2,0.3,2.877,re_r_order
58,11,re,70,justi,155,0,2.164,3.071,3,3,3.134,-234,-4,0.5,2.01,re_r_order
58,12,re,55,kevin,127,0,1.971,2.612,-5,-3,3.179,-52,2,0.5,2.083,re_r_order
58,13,re,90,austin,65,0,1.672,2.8,-76,1,2.802,-239,-2,0.4,2.049,re_r_order
58,14,re,90,chris,88,0,2.706,2.259,-86,2,2.686,-229,-2,0.35,1.848,re_r_order
58,15,re,50,cody,117,0,2.054,2.214,-100,0,3.855,16,-3,0.35,1.725,re_r_order
58,16,re,65,ryan,77,0,2.578,3.22,-27,-3,2.625,-117,0,0.15,2.401,re_r_order
58,17,re,55,john,102,0,1.767,2.128,-42,1,2.922,-20,-2,0.25,1.958,re_r_order
58,18,re,70,jordan,86,0,1.556,2.711,-76,2,2.477,-131,-3,0.2,2.425,re_r_order
58,19,re,65,daniel,96,0,2.747,2.797,-117,-8,3.075,-144,-13,0.3,2.194,re_r_order
58,20,re,60,eric,1,0,3.519,2.49,-74,-5,3.367,-134,1,0.3,2.66,re_r_order
59,1,re,90,chris,88,1,4.485,6.127,104,102,6.841,-216,81,0.45,3.8,r_re_order
59,2,re,70,jordan,86,0,11.051,4.133,-187,-63,5.424,-57,87,0.25,3.219,r_re_order
59,3,re,75,samuel,57,0,3.915,5.065,-37,39,4.02,98,141,0.25,2.741,r_re_order
59,4,re,50,aaron,21,0,4.811,3.974,103,98,9.219,244,218,0.3,3.024,r_re_order
59,5,re,75,andre,111,0,3.187,3.585,182,191,4.529,86,102,0.35,2.861,r_re_order
59,6,re,80,ben,136,0,3.524,3.009,118,73,4.3,39,34,0.25,3.474,r_re_order
59,7,re,55,john,102,0,4.602,3.42,53,92,4.176,198,195,0.35,3.302,r_re_order
59,8,re,60,jacob,131,0,3.512,3.451,162,189,3.927,234,162,0.4,3.357,r_re_order
59,9,re,50,cody,117,0,4.082,4.099,210,212,4.675,245,236,0.45,3.531,r_re_order
59,10,re,70,justi,155,0,3,3.577,195,208,3.601,74,90,0.45,4.825,r_re_order
59,11,re,55,kevin,127,0,8.57,4.29,156,112,4.367,221,218,0.45,3.448,r_re_order
59,12,re,90,austin,65,1,4.455,5.413,143,193,5.042,-187,-223,0.45,3.958,r_re_order
59,13,re,65,daniel,96,0,5.725,4.9,-182,-157,13.717,61,98,0.15,4.322,r_re_order
59,14,re,95,dylan,143,1,4.57,4.031,-37,14,5.528,-202,-211,0.35,5.986,r_re_order
59,15,re,65,ryan,77,0,3.77,4.203,-42,124,4.173,94,77,0.25,4.002,r_re_order
59,16,re,85,matt,137,1,6.425,4.016,161,176,4.351,-159,-208,0.4,3.101,r_re_order
59,17,re,85,zach,118,1,3.792,3.574,57,77,3.94,-123,-124,0.25,46.058,r_re_order
59,18,re,95,nichola,6,1,3.477,3.901,74,115,4.115,-198,-201,0.45,3.122,r_re_order
59,19,re,60,eric,1,0,3.445,26.429,-104,-134,3.487,167,167,0.4,2.777,r_re_order
59,20,re,80,brando,60,0,4.187,3.467,102,101,3.378,-53,-84,0.35,2.929,r_re_order
60,1,re,95,nichola,6,1,4.586,5.681,-175,-126,4.995,-215,-221,0.2,5.597,re_r_order
60,2,re,80,brando,60,0,4.859,4.54,-189,-137,6.609,-186,-82,0.15,8.897,re_r_order
60,3,re,50,aaron,21,0,2.935,8.62,38,-70,15.299,93,98,0.2,8.544,re_r_order
60,4,re,70,jordan,86,0,7.912,3.835,-193,-166,4.97,155,151,0.05,28.189,re_r_order
60,5,re,90,chris,88,1,3.352,3.322,-69,-48,5.243,-177,-171,0.1,4.058,re_r_order
60,6,re,70,justi,155,0,4.999,11.643,-80,-73,4.799,1,3,0.2,5.735,re_r_order
60,7,re,50,cody,117,0,2.424,8.435,67,50,4.41,182,194,0.3,5.769,re_r_order
60,8,re,75,samuel,57,0,2.48,4.685,-125,-95,5.783,58,54,0.1,6.131,re_r_order
60,9,re,55,kevin,127,0,2.699,4.462,-129,-120,4.715,170,182,0.05,2.759,re_r_order
60,10,re,55,john,102,0,2.658,6.452,58,75,5.336,152,152,0.25,3.529,re_r_order
60,11,re,80,ben,136,0,3.729,18.944,113,111,11.382,-37,-26,0.2,3.48,re_r_order
60,12,re,90,austin,65,1,10.137,9.335,-140,-87,19.146,-161,-154,0.1,32.31,re_r_order
60,13,re,60,jacob,131,0,2.108,10.508,-136,-125,4.131,124,117,0.05,2.891,re_r_order
60,14,re,60,eric,1,0,11.313,5.367,-26,-20,4.991,139,132,0.15,3.348,re_r_order
60,15,re,85,zach,118,0,2.569,3.054,-124,-128,3.515,-108,-79,0.1,3.424,re_r_order
60,16,re,95,dylan,143,1,2.098,3.116,25,32,3.676,-203,-187,0.25,3.208,re_r_order
60,17,re,65,daniel,96,0,2.373,2.723,-129,-128,3.379,58,86,0.1,2.988,re_r_order
60,18,re,65,ryan,77,0,19.536,4.052,-79,-71,12.957,102,105,0.1,2.897,re_r_order
60,19,re,75,andre,111,0,2.106,4.124,99,126,4.744,95,101,0.3,3.624,re_r_order
60,20,re,85,matt,137,0,2.221,7.217,-180,-151,5.361,-102,-64,0.05,4.209,re_r_order
61,1,re,90,chris,88,1,5.717,7,235,-1,13.67,-120,1,0.5,5.499,re_r_order
61,2,re,70,jordan,86,0,3.134,5.991,240,-3,9.354,48,-1,0.5,4.62,re_r_order
61,3,re,80,ben,136,1,3.277,8.414,183,69,7.453,-52,-4,0.5,3.77,re_r_order
61,4,re,75,samuel,57,0,3.296,6.834,201,-3,8.953,22,0,0.5,4.893,re_r_order
61,5,re,50,aaron,21,0,3.627,3.608,190,0,12.928,240,192,0.5,3.89,re_r_order
61,6,re,65,ryan,77,0,3.26,5.2,230,121,5.878,170,48,0.5,4.818,re_r_order
61,7,re,95,nichola,6,1,3.932,3.629,227,75,7.587,-159,72,0.5,4.635,re_r_order
61,8,re,60,eric,1,0,2.673,7.838,199,21,7.789,180,74,0.5,3.997,re_r_order
61,9,re,65,daniel,96,0,2.82,6.097,168,45,8.691,114,-22,0.5,4.93,re_r_order
61,10,re,85,matt,137,1,2.851,6.978,182,-2,6.962,-106,20,0.5,2.947,re_r_order
61,11,re,75,andre,111,0,3.059,6.562,115,34,7.273,-2,17,0.5,3.277,re_r_order
61,12,re,90,austin,65,1,2.675,4.544,226,159,9.828,-183,104,0.5,3.437,re_r_order
61,13,re,55,john,102,0,2.192,7.258,127,19,4.992,226,110,0.5,3.539,re_r_order
61,14,re,80,brando,60,1,2.925,4.235,155,34,7.343,-98,16,0.5,4.049,re_r_order
61,15,re,60,jacob,131,0,2.292,8.265,151,27,6.009,166,41,0.5,3.039,re_r_order
61,16,re,50,cody,117,0,2.765,6.404,152,18,7.43,228,150,0.5,3.2,re_r_order
61,17,re,85,zach,118,1,3.194,6.282,126,-15,7.834,-159,0,0.5,3.068,re_r_order
61,18,re,95,dylan,143,1,2.169,4.207,139,16,6.576,-190,56,0.5,4.184,re_r_order
61,19,re,70,justi,155,0,2.588,6.249,2,0,7.917,2,10,0.3,7.248,re_r_order
61,20,re,55,kevin,127,0,2.914,7.253,-20,-25,7.088,194,68,0.25,7.81,re_r_order
62,1,re,85,zach,118,0,5.646,8.041,-112,-93,6.309,3,1,0.1,10.614,re_r_order
62,2,re,85,matt,137,0,2.761,4.251,-150,-133,4.293,0,1,0,4.126,re_r_order
62,3,re,90,austin,65,0,2.666,5.969,-37,-34,5.953,-20,-10,0.15,4.213,re_r_order
62,4,re,70,jordan,86,0,2.639,3.446,-1,4,4.458,21,-22,0.1,3.58,re_r_order
62,5,re,90,chris,88,0,2.5,3.1,-1,0,3.324,-14,-10,0.15,3.815,re_r_order
62,6,re,65,ryan,77,0,2.244,3.48,-1,-2,4.169,20,-16,0.2,2.879,re_r_order
62,7,re,80,ben,136,0,3.105,3.23,-2,4,4.569,0,0,0.15,2.565,re_r_order
62,8,re,70,justi,155,0,2.316,5.071,1,-1,3.817,12,-8,0.05,2.93,re_r_order
62,9,re,50,cody,117,0,2.287,3.553,3,-2,4.941,104,-84,0.15,2.737,re_r_order
62,10,re,95,dylan,143,1,2.579,3.883,-1,1,5.073,-55,-43,0.05,2.57,re_r_order
62,11,re,75,samuel,57,0,2.246,4.229,1,1,4.01,3,-4,0.1,5.223,re_r_order
62,12,re,55,john,102,0,2.48,9.214,-1,-3,4.528,21,13,0.15,2.962,re_r_order
62,13,re,80,brando,60,0,6.848,8.358,-1,-1,9.555,-2,-9,0.1,3.437,re_r_order
62,14,re,75,andre,111,0,2.608,9.871,1,-1,4.289,1,-2,0.15,29.827,re_r_order
62,15,re,60,jacob,131,0,2.375,3.577,2,-6,32.308,35,-16,0.2,1.185,re_r_order
62,16,re,95,nichola,6,1,2.911,13.592,1,0,4.5,-73,-43,0.2,2.914,re_r_order
62,17,re,55,kevin,127,0,2.038,3.362,0,-3,3.553,31,-29,0.25,2.175,re_r_order
62,18,re,50,aaron,21,0,2.473,2.974,-1,1,2.538,116,-69,0.2,2.37,re_r_order
62,19,re,60,eric,1,0,2.717,3.428,-5,0,2.586,52,-53,0.3,2.606,re_r_order
62,20,re,65,daniel,96,0,2.476,2.841,1,3,2.748,26,-22,0.25,2.886,re_r_order
63,1,re,70,jordan,86,0,2.983,7.547,1,0,8.959,48,3,0.25,3.01,r_re_order
63,2,re,75,andre,111,0,2.744,4.172,0,-1,4.45,43,0,0.25,2.483,r_re_order
63,3,re,80,ben,136,0,2.947,4.425,0,1,4.243,15,1,0.25,3.121,r_re_order
63,4,re,55,kevin,127,0,2.703,3.755,-1,1,6.165,187,-2,0.25,2.476,r_re_order
63,5,re,90,austin,65,1,2.608,3.955,0,0,5.911,-27,1,0.25,3.673,r_re_order
63,6,re,80,brando,60,0,2.617,5.229,0,1,4.951,57,2,0.25,2.784,r_re_order
63,7,re,65,daniel,96,0,2.765,7.551,2,-1,3.912,63,1,0.25,2.722,r_re_order
63,8,re,85,zach,118,0,2.612,3.841,-1,0,4.343,16,1,0.25,3.062,r_re_order
63,9,re,65,ryan,77,0,4.109,5.61,-1,0,4.024,53,0,0.25,2.932,r_re_order
63,10,re,55,john,102,0,1.859,7.271,0,1,4.136,211,0,0.25,3.022,r_re_order
63,11,re,85,matt,137,0,2.735,3.521,0,0,3.406,15,1,0.25,2.929,r_re_order
63,12,re,75,samuel,57,0,2.173,4.499,-1,1,3.649,39,-1,0.25,3.014,r_re_order
63,13,re,50,aaron,21,0,2.746,4.283,0,-2,5.809,235,0,0.25,3.803,r_re_order
63,14,re,95,dylan,143,1,2.762,5.126,-2,0,5.253,-153,1,0.25,2.953,r_re_order
63,15,re,70,justi,155,0,2.803,4.413,1,-1,4.791,69,0,0.25,4.509,r_re_order
63,16,re,60,jacob,131,0,2.946,3.967,-2,-1,4.108,126,1,0.25,3.004,r_re_order
63,17,re,90,chris,88,1,3.44,4.712,0,-1,3.098,-132,-1,0.25,2.7,r_re_order
63,18,re,60,eric,1,0,2.527,4.133,2,-1,3.437,116,0,0.25,3.023,r_re_order
63,19,re,50,cody,117,0,2.365,4.455,0,-1,3.753,238,2,0.25,2.215,r_re_order
63,20,re,95,nichola,6,1,3.291,4.936,1,-1,4.533,-231,-3,0.25,1.923,r_re_order
64,1,re,80,ben,136,1,2.676,9.898,130,62,6.383,-128,39,0.4,3.527,r_re_order
64,2,re,55,john,102,0,1.814,7.911,103,173,2.333,221,234,0.35,3.501,r_re_order
64,3,re,75,samuel,57,1,1.379,4.627,94,-53,6.675,67,-238,0.15,1.964,r_re_order
64,4,re,65,daniel,96,0,2.017,2.087,89,104,2.327,213,241,0.3,1.677,r_re_order
64,5,re,60,eric,1,0,2.125,1.97,-144,-141,2.563,125,127,0.15,8.093,r_re_order
64,6,re,60,jacob,131,0,2.187,2.075,-76,75,2.004,119,165,0.2,3.102,r_re_order
64,7,re,90,austin,65,1,2.454,1.852,236,239,3.324,-230,-228,0.5,2.116,r_re_order
64,8,re,50,cody,117,0,1.976,2.056,149,150,1.823,243,244,0.3,1.825,r_re_order
64,9,re,90,chris,88,1,2.916,6.311,60,71,1.68,-216,-210,0.15,1.555,r_re_order
64,10,re,75,andre,111,1,2.128,3.761,106,-81,2.983,235,-6,0.25,4.815,r_re_order
64,11,re,70,justi,155,1,1.974,9.821,153,-156,4.411,21,22,0.4,4.331,r_re_order
64,12,re,85,matt,137,1,1.908,1.987,106,140,4.986,-171,194,0.35,2.354,r_re_order
64,13,re,55,kevin,127,0,1.833,1.768,132,155,1.574,190,200,0.4,2.282,r_re_order
64,14,re,95,dylan,143,1,1.804,1.922,-118,150,3.814,-240,242,0.3,1.221,r_re_order
64,15,re,65,ryan,77,0,1.912,1.414,92,120,2.056,149,8,0.4,1.538,r_re_order
64,16,re,95,nichola,6,1,1.924,1.862,-102,50,3.013,-235,185,0.3,1.721,r_re_order
64,17,re,70,jordan,86,1,3.508,1.387,105,149,1.483,107,112,0.25,15.994,r_re_order
64,18,re,80,brando,60,1,2.995,1.29,184,219,1.947,-79,-45,0.4,3.484,r_re_order
64,19,re,85,zach,118,1,1.646,1.551,134,113,2.069,-25,-7,0.35,1.38,r_re_order
64,20,re,50,aaron,21,0,1.442,3.367,-77,135,3.526,235,241,0.25,2.443,r_re_order
65,1,re,70,jordan,86,0,2.786,6.873,2,-1,8.297,-67,-1,0.25,4.3,r_re_order
65,2,re,70,justi,155,0,2.685,5.467,1,0,5.594,-66,-1,0.25,4.285,r_re_order
65,3,re,80,brando,60,0,2.962,5.496,0,2,4.973,-128,0,0.25,3.559,r_re_order
65,4,re,50,aaron,21,0,3.681,3.491,-1,-1,4.592,186,1,0.25,3.385,r_re_order
65,5,re,65,ryan,77,0,3.373,4.895,1,3,8.195,34,-1,0.25,2.735,r_re_order
65,6,re,60,eric,1,0,3.312,5.981,0,-4,5.243,49,1,0.25,2.966,r_re_order
65,7,re,75,andre,111,0,3.139,4.563,1,2,6.092,0,1,0.25,2.734,r_re_order
65,8,re,60,jacob,131,0,2.596,5.012,1,1,8.047,126,0,0.25,2.674,r_re_order
65,9,re,85,matt,137,0,2.866,5.14,1,1,5.3,-111,2,0.25,2.774,r_re_order
65,10,re,85,zach,118,0,3.77,4.84,0,0,4.997,-64,-2,0.25,3.667,r_re_order
65,11,re,75,samuel,57,0,2.595,6.08,-1,3,6.902,1,4,0.25,3.33,r_re_order
65,12,re,90,chris,88,0,2.86,5.718,-1,2,6.432,-175,-1,0.25,3.615,r_re_order
65,13,re,80,ben,136,0,3.498,5.116,-1,4,6.709,-39,1,0.25,3.003,r_re_order
65,14,re,55,kevin,127,0,4.199,5.196,1,1,12.905,179,-2,0.25,3.194,r_re_order
65,15,re,90,austin,65,0,2.85,5.761,1,1,5.914,-182,-1,0.25,2.994,r_re_order
65,16,re,55,john,102,0,3.647,4.89,1,1,5.12,196,2,0.25,2.974,r_re_order
65,17,re,95,nichola,6,0,2.953,5.599,2,1,6.089,-218,0,0.25,3.701,r_re_order
65,18,re,95,dylan,143,0,2.9,4.856,1,1,4.531,-217,-1,0.25,3.254,r_re_order
65,19,re,65,daniel,96,0,2.871,5.692,0,2,6.606,57,-1,0.25,3.981,r_re_order
65,20,re,50,cody,117,0,3.956,5.956,-1,-1,5.662,245,-3,0.25,2.577,r_re_order
66,1,re,95,dylan,143,1,4.579,5.008,-178,-145,8.187,-241,246,0.2,13.986,re_r_order
66,2,re,75,andre,111,0,2.858,7.794,-38,-77,7.564,11,-13,0.3,4.959,re_r_order
66,3,re,90,austin,65,1,3.927,4.763,69,77,5.387,-240,236,0.45,4.692,re_r_order
66,4,re,70,justi,155,0,2.115,3.738,-225,230,5.23,99,-28,0.1,5.09,re_r_order
66,5,re,90,chris,88,1,2.277,3.107,222,226,3.723,-241,236,0.5,2.85,re_r_order
66,6,re,55,kevin,127,0,2.824,4.949,-246,241,5.968,231,100,0,3.264,re_r_order
66,7,re,55,john,102,0,2.392,2.724,114,111,2.999,189,191,0.5,2.565,re_r_order
