sub,trial,block,offer,partner_name,partner_id,choice,choice_RT,f_r_page_submit,RP,RP_RT,condition
1,1,r,75,michae,135,0,3.932,3.826,0.25,4.466,re_r_order
1,2,r,65,paul,83,0,4.126,2.35,0.35,3.838,re_r_order
1,3,r,75,joshua,62,0,3.768,7.905,0.25,2.917,re_r_order
1,4,r,85,tony,27,1,1.757,2.579,0.2,4.141,re_r_order
1,5,r,80,cory,47,0,2.124,2.226,0.4,30.34,re_r_order
1,6,r,60,mark,116,0,1.958,1.694,0.15,2.733,re_r_order
1,7,r,90,keith,90,1,3.446,2.857,0.15,3.06,re_r_order
1,8,r,50,nathan,160,0,1.811,1.778,0.4,2.884,re_r_order
1,9,r,90,connor,153,1,2.085,2.083,0.1,3.074,re_r_order
1,10,r,85,kyle,23,1,2.555,2.379,0.05,4.899,re_r_order
1,11,r,55,tom,161,0,3.116,1.254,0.2,4.08,re_r_order
1,12,r,65,patric,145,0,2.575,1.71,0.25,2.828,re_r_order
1,13,r,70,tyler,81,0,2.358,1.966,0.3,3.865,re_r_order
1,14,r,95,scott,152,1,1.991,2.104,0.05,3.005,re_r_order
1,15,r,50,anthony,63,0,2.069,1.942,0.1,3.015,re_r_order
1,16,r,55,logan,144,0,2.351,1.838,0.1,2.814,re_r_order
1,17,r,95,ethan,20,1,1.853,1.8,0.45,3.164,re_r_order
1,18,r,80,blake,22,1,2.107,3.098,0.25,2.373,re_r_order
1,19,r,60,joseph,169,0,2.31,2.097,0.3,29.329,re_r_order
1,20,r,70,edward,54,0,2.2,1.138,0.1,3.193,re_r_order
2,1,r,95,scott,152,0,2.313,2.017,0.2,6.52,re_r_order
2,2,r,90,keith,90,0,2.453,1.342,0.35,6.167,re_r_order
2,3,r,85,kyle,23,0,2.506,1.448,0.45,2.916,re_r_order
2,4,r,60,mark,116,0,2.412,1.569,0.05,2.875,re_r_order
2,5,r,55,tom,161,0,2.061,1.632,0,2.844,re_r_order
2,6,r,80,blake,22,0,2.383,1.184,0.05,3.086,re_r_order
2,7,r,50,nathan,160,0,2.348,1.2,0.2,9.136,re_r_order
2,8,r,75,michae,135,0,2.698,1.208,0.05,5.015,re_r_order
2,9,r,65,patric,145,0,2.623,1.471,0.1,5.857,re_r_order
2,10,r,85,tony,27,0,2.355,1.484,0.1,5.789,re_r_order
2,11,r,95,ethan,20,0,2.273,1.396,0.15,3.197,re_r_order
2,12,r,70,edward,54,0,2.723,1.151,0.15,3.393,re_r_order
2,13,r,55,logan,144,0,2.381,1.197,0.05,2.962,re_r_order
2,14,r,70,tyler,81,0,3.256,1.501,0.5,3.006,re_r_order
2,15,r,75,joshua,62,0,1.983,1.263,0.15,12.455,re_r_order
2,16,r,90,connor,153,0,2.561,1.293,0.05,3.196,re_r_order
2,17,r,65,paul,83,0,3.123,1.277,0.15,8.57,re_r_order
2,18,r,50,anthony,63,0,2.849,1.096,0.1,3.681,re_r_order
2,19,r,60,joseph,169,0,2.751,1.45,0.35,3.733,re_r_order
2,20,r,80,cory,47,0,2.869,1.424,0.2,2.639,re_r_order
3,1,r,90,keith,90,1,6.071,4.026,0.1,6.552,re_r_order
3,2,r,85,kyle,23,1,3.714,4.096,0.15,4.591,re_r_order
3,3,r,50,nathan,160,0,2.332,1.753,0.35,3.127,re_r_order
3,4,r,90,connor,153,1,2.223,1.671,0.25,3.1,re_r_order
3,5,r,55,logan,144,0,2.439,1.497,0.1,5.086,re_r_order
3,6,r,85,tony,27,1,2.074,1.666,0.25,4.462,re_r_order
3,7,r,75,michae,135,0,2.348,1.466,0.15,3.011,re_r_order
3,8,r,80,cory,47,0,2.292,1.443,0.1,3.236,re_r_order
3,9,r,60,joseph,169,0,3.383,1.983,0.25,4.156,re_r_order
3,10,r,60,mark,116,0,3.19,2.025,0.15,2.909,re_r_order
3,11,r,70,edward,54,0,2.142,1.739,0.25,8.653,re_r_order
3,12,r,75,joshua,62,0,2.459,1.366,0.15,9.13,re_r_order
3,13,r,80,blake,22,0,1.999,1.51,0.1,2.97,re_r_order
3,14,r,65,patric,145,0,2.233,1.326,0.15,2.836,re_r_order
3,15,r,55,tom,161,0,2.528,1.892,0.3,3.218,re_r_order
3,16,r,95,ethan,20,1,2.288,1.3,0.1,2.673,re_r_order
3,17,r,65,paul,83,0,2.459,1.558,0.2,4.785,re_r_order
3,18,r,50,anthony,63,0,1.941,1.452,0.3,10.765,re_r_order
3,19,r,70,tyler,81,0,1.877,1.251,0.15,4.025,re_r_order
3,20,r,95,scott,152,1,2.46,1.421,0.15,5.981,re_r_order
4,1,r,55,tom,161,0,2.721,3.34,0.5,12.434,re_r_order
4,2,r,60,joseph,169,0,2.007,3.269,0.5,3.365,re_r_order
4,3,r,70,edward,54,0,2.323,2.273,0.5,2.262,re_r_order
4,4,r,90,keith,90,0,2.397,2.079,0.5,1.449,re_r_order
4,5,r,95,ethan,20,0,2.607,1.514,0.5,2.712,re_r_order
4,6,r,50,nathan,160,0,2.446,2.649,0.5,2.715,re_r_order
4,7,r,65,patric,145,0,2.809,1.474,0.5,2.185,re_r_order
4,8,r,50,anthony,63,0,2.839,1.521,0.5,1.956,re_r_order
4,9,r,85,tony,27,0,2.832,1.6,0.5,0.857,re_r_order
4,10,r,75,michae,135,0,2.39,1.831,0.5,7.164,re_r_order
4,11,r,80,blake,22,0,2.266,2.285,0.5,2.433,re_r_order
4,12,r,60,mark,116,0,2.778,3.773,0.5,1.221,re_r_order
4,13,r,75,joshua,62,0,2.255,1.288,0.5,0.939,re_r_order
4,14,r,85,kyle,23,0,3.198,1.691,0.5,0.644,re_r_order
4,15,r,70,tyler,81,0,2.889,1.401,0.5,2.401,re_r_order
4,16,r,65,paul,83,0,6.181,1.608,0.5,5.571,re_r_order
4,17,r,90,connor,153,0,1.646,2.469,0.5,1.634,re_r_order
4,18,r,80,cory,47,0,2.561,2.43,0.5,1.493,re_r_order
4,19,r,55,logan,144,0,2.432,1.754,0.5,2.108,re_r_order
4,20,r,95,scott,152,0,2.28,1.625,0.5,1.118,re_r_order
5,1,r,65,paul,83,0,4.37,4.843,0.25,9.926,r_re_order
5,2,r,90,connor,153,1,3.41,1.845,0.2,4.579,r_re_order
5,3,r,85,tony,27,1,3.561,1.607,0.4,3.191,r_re_order
5,4,r,50,anthony,63,0,2.302,1.502,0.35,3.671,r_re_order
5,5,r,55,tom,161,0,13.887,1.449,0.1,2.493,r_re_order
5,6,r,60,joseph,169,0,2.225,1.47,0.3,7.154,r_re_order
5,7,r,65,patric,145,0,2.137,1.552,0.2,2.372,r_re_order
5,8,r,95,scott,152,1,1.974,1.263,0.1,2.33,r_re_order
5,9,r,90,keith,90,1,2.474,1.737,0.3,2.411,r_re_order
5,10,r,70,tyler,81,0,1.97,1.118,0.45,3.628,r_re_order
5,11,r,70,edward,54,0,7.102,8.368,0.25,11.031,r_re_order
5,12,r,85,kyle,23,1,5.324,0.925,0.25,21.825,r_re_order
5,13,r,80,cory,47,1,5.417,0.88,0.25,27.419,r_re_order
5,14,r,95,ethan,20,1,1.805,2.067,0.35,11.471,r_re_order
5,15,r,55,logan,144,0,10.663,4.217,0.4,11.992,r_re_order
5,16,r,60,mark,116,0,2.794,0.981,0.2,10.287,r_re_order
5,17,r,50,nathan,160,0,2.204,1.018,0.2,5.3,r_re_order
5,18,r,80,blake,22,1,2.296,1.474,0.25,1.897,r_re_order
5,19,r,75,michae,135,1,2.758,0.875,0.35,1.975,r_re_order
5,20,r,75,joshua,62,1,1.733,0.874,0.5,40.955,r_re_order
6,1,r,60,joseph,169,0,6.484,5.673,0.25,12.252,r_re_order
6,2,r,50,anthony,63,0,5.029,2.931,0.15,8.489,r_re_order
6,3,r,95,ethan,20,0,9.177,3.847,0.4,6.147,r_re_order
6,4,r,65,patric,145,0,3.693,2.876,0.4,5.017,r_re_order
6,5,r,70,tyler,81,0,4.878,2.493,0.5,3.732,r_re_order
6,6,r,60,mark,116,0,4.074,2.201,0.5,3.555,r_re_order
6,7,r,75,michae,135,0,6.765,2.362,0.4,4.803,r_re_order
6,8,r,80,blake,22,0,3.884,2.401,0.2,4.425,r_re_order
6,9,r,70,edward,54,0,3.691,2.169,0.35,3.339,r_re_order
6,10,r,65,paul,83,0,3.306,1.901,0.45,3.226,r_re_order
6,11,r,75,joshua,62,0,3.507,1.853,0.4,2.963,r_re_order
6,12,r,85,tony,27,0,9.998,2.218,0.25,4.576,r_re_order
6,13,r,55,tom,161,0,2.901,2.18,0.4,3.058,r_re_order
6,14,r,80,cory,47,0,3.947,1.898,0.35,2.814,r_re_order
6,15,r,90,connor,153,0,3.396,1.951,0.45,2.937,r_re_order
6,16,r,85,kyle,23,0,2.897,1.88,0.1,3.076,r_re_order
6,17,r,50,nathan,160,0,2.715,1.655,0.3,2.661,r_re_order
6,18,r,55,logan,144,0,3.44,2.002,0.35,2.977,r_re_order
6,19,r,95,scott,152,0,3.176,2.01,0.4,2.223,r_re_order
6,20,r,90,keith,90,0,2.84,2.382,0.45,2.646,r_re_order
7,1,r,70,tyler,81,0,6.551,2.168,0.05,6.036,re_r_order
7,2,r,95,ethan,20,1,2.546,2.9,0,3.874,re_r_order
7,3,r,65,patric,145,0,2.608,1.732,0,3.193,re_r_order
7,4,r,60,mark,116,0,1.892,1.307,0.1,3.383,re_r_order
7,5,r,80,blake,22,0,2.035,1.476,0.05,4.538,re_r_order
7,6,r,95,scott,152,1,2.257,1.539,0,3.608,re_r_order
7,7,r,75,joshua,62,0,2.324,1.482,0.05,4.202,re_r_order
7,8,r,75,michae,135,0,2.248,1.278,0,4.128,re_r_order
7,9,r,85,tony,27,0,2.534,2.726,0.05,5.007,re_r_order
7,10,r,55,tom,161,0,2.745,1.571,0.15,3.428,re_r_order
7,11,r,80,cory,47,0,1.97,1.74,0,5.498,re_r_order
7,12,r,65,paul,83,0,2.762,1.466,0.1,4.079,re_r_order
7,13,r,85,kyle,23,0,2.195,1.575,0,3.363,re_r_order
7,14,r,70,edward,54,0,2.31,1.532,0.2,4.295,re_r_order
7,15,r,90,connor,153,1,2.797,1.537,0,3.336,re_r_order
7,16,r,50,anthony,63,0,3.502,1.665,0.05,4.675,re_r_order
7,17,r,55,logan,144,0,2.305,1.81,0,3.334,re_r_order
7,18,r,60,joseph,169,0,2.513,1.372,0.1,4.016,re_r_order
7,19,r,50,nathan,160,0,2.021,1.626,0.1,4.653,re_r_order
7,20,r,90,keith,90,1,3.438,1.444,0,3.698,re_r_order
8,1,r,70,tyler,81,0,6.012,4.506,0.2,8.12,r_re_order
8,2,r,75,michae,135,0,5.147,4.301,0.1,6.726,r_re_order
8,3,r,95,ethan,20,0,5.009,3.556,0.35,7.548,r_re_order
8,4,r,60,joseph,169,0,5.343,3.175,0.1,5.113,r_re_order
8,5,r,85,kyle,23,0,4.034,2.096,0.2,5.878,r_re_order
8,6,r,80,blake,22,0,3.628,2.944,0.05,5.217,r_re_order
8,7,r,65,patric,145,0,4.485,2.321,0.2,6.702,r_re_order
8,8,r,85,tony,27,0,3.919,2.618,0.35,9.417,r_re_order
8,9,r,80,cory,47,0,7.506,2.464,0.2,5.544,r_re_order
8,10,r,60,mark,116,0,4.619,2.627,0.4,7.117,r_re_order
8,11,r,50,anthony,63,0,7.304,4.445,0.25,5.112,r_re_order
8,12,r,55,logan,144,0,3.1,2.687,0.15,5.584,r_re_order
8,13,r,55,tom,161,0,4.466,2.205,0.2,5.066,r_re_order
8,14,r,50,nathan,160,0,3.203,2.145,0.3,9.241,r_re_order
8,15,r,95,scott,152,0,3.91,2.211,0.1,4.15,r_re_order
8,16,r,65,paul,83,0,3.425,1.913,0.15,7.438,r_re_order
8,17,r,90,keith,90,0,5.465,1.849,0.25,8.497,r_re_order
8,18,r,90,connor,153,0,3.831,1.725,0.15,5.674,r_re_order
8,19,r,75,joshua,62,0,2.724,1.76,0.25,5.805,r_re_order
8,20,r,70,edward,54,0,2.921,1.679,0.15,19.436,r_re_order
9,1,r,80,cory,47,1,3.544,2.879,0.3,19.54,re_r_order
9,2,r,90,keith,90,1,2.859,2.685,0.4,3.385,re_r_order
9,3,r,60,mark,116,0,2.851,1.93,0.2,42.517,re_r_order
9,4,r,75,joshua,62,1,4.601,1.92,0.3,12.64,re_r_order
9,5,r,80,blake,22,1,3.528,1.955,0.4,3.247,re_r_order
9,6,r,70,tyler,81,1,3.667,2.636,0.4,42.761,re_r_order
9,7,r,55,tom,161,0,3.109,3.131,0.3,3.373,re_r_order
9,8,r,50,anthony,63,0,2.938,1.998,0.45,19.406,re_r_order
9,9,r,90,connor,153,1,2.632,1.944,0.4,22.009,re_r_order
9,10,r,60,joseph,169,0,2.684,2.715,0.4,3.421,re_r_order
9,11,r,85,tony,27,1,15.278,2.008,0.35,12.65,re_r_order
9,12,r,55,logan,144,0,2.553,1.959,0.4,47.226,re_r_order
9,13,r,95,ethan,20,1,3.142,1.938,0.3,3.067,re_r_order
9,14,r,95,scott,152,1,5.075,1.9,0.05,3.226,re_r_order
9,15,r,65,paul,83,0,2.849,1.694,0.35,3.16,re_r_order
9,16,r,85,kyle,23,1,3.411,2.135,0.4,3.201,re_r_order
9,17,r,70,edward,54,1,4.168,2.189,0.4,3.338,re_r_order
9,18,r,75,michae,135,1,2.946,1.95,0.45,13.716,re_r_order
9,19,r,65,patric,145,0,2.929,1.732,0.25,81.995,re_r_order
9,20,r,50,nathan,160,0,3.797,1.75,0.4,3.213,re_r_order
10,1,r,90,keith,90,1,2.965,1.243,0.5,5.714,r_re_order
10,2,r,55,logan,144,0,2.291,0.974,0.4,4.287,r_re_order
10,3,r,90,connor,153,1,1.243,0.967,0.3,2.886,r_re_order
10,4,r,65,patric,145,0,1.636,0.961,0.45,4.588,r_re_order
10,5,r,95,ethan,20,1,1.001,0.799,0.4,1.973,r_re_order
10,6,r,85,tony,27,1,1.946,0.689,0.5,2.283,r_re_order
10,7,r,85,kyle,23,1,1.329,1.359,0.4,3.586,r_re_order
10,8,r,75,joshua,62,0,2.109,0.664,0.45,3.437,r_re_order
10,9,r,60,mark,116,0,1.097,0.86,0.4,1.723,r_re_order
10,10,r,50,anthony,63,0,3.46,0.81,0.4,2.624,r_re_order
10,11,r,65,paul,83,0,1.941,0.803,0.4,2.063,r_re_order
10,12,r,80,blake,22,1,2.878,0.735,0.4,3.079,r_re_order
10,13,r,70,tyler,81,0,1.661,0.668,0.45,2.39,r_re_order
10,14,r,80,cory,47,1,1.148,0.771,0.45,2.066,r_re_order
10,15,r,55,tom,161,0,2.878,0.739,0.4,2.101,r_re_order
10,16,r,95,scott,152,1,2.754,0.9,0.2,4.337,r_re_order
10,17,r,70,edward,54,0,4.837,1.677,0.45,2.137,r_re_order
10,18,r,60,joseph,169,0,1.154,0.84,0.4,2.342,r_re_order
10,19,r,75,michae,135,1,1.194,0.601,0.4,1.874,r_re_order
10,20,r,50,nathan,160,0,1.178,0.628,0.35,2.502,r_re_order
11,1,r,65,paul,83,1,4.84,3.039,0,4.01,re_r_order
11,2,r,80,cory,47,1,2.255,1.901,0.25,3.838,re_r_order
11,3,r,85,tony,27,1,2.146,1.814,0.1,2.668,re_r_order
11,4,r,65,patric,145,1,2.071,1.55,0.2,2.812,re_r_order
11,5,r,55,tom,161,0,2.177,1.901,0.25,3.109,re_r_order
11,6,r,90,keith,90,1,2.196,1.93,0,6.559,re_r_order
11,7,r,70,edward,54,1,2.215,1.835,0.4,2.773,re_r_order
11,8,r,90,connor,153,1,2.8,1.769,0,3.574,re_r_order
11,9,r,60,mark,116,0,2.299,2.66,0.2,2.678,re_r_order
11,10,r,75,michae,135,1,2.17,2.141,0.05,2.915,re_r_order
11,11,r,50,anthony,63,0,2.087,1.658,0.05,2.796,re_r_order
11,12,r,75,joshua,62,1,2.252,1.993,0.2,2.463,re_r_order
11,13,r,70,tyler,81,1,2.134,1.895,0.35,2.291,re_r_order
11,14,r,95,ethan,20,1,2.287,1.697,0.1,2.559,re_r_order
11,15,r,95,scott,152,1,2.024,1.327,0,3.013,re_r_order
11,16,r,55,logan,144,0,1.881,1.79,0.05,2.629,re_r_order
11,17,r,85,kyle,23,1,1.672,1.203,0.05,2.578,re_r_order
11,18,r,50,nathan,160,0,2.099,1.596,0.4,2.257,re_r_order
11,19,r,80,blake,22,1,2.182,1.191,0.05,2.199,re_r_order
11,20,r,60,joseph,169,0,2.03,1.262,0.15,2.957,re_r_order
12,1,r,65,patric,145,1,5.593,3.751,0.2,4.972,r_re_order
12,2,r,60,mark,116,0,3.055,1.874,0.25,4.606,r_re_order
12,3,r,55,logan,144,0,7.255,1.943,0.05,4.082,r_re_order
12,4,r,75,joshua,62,1,2.594,1.87,0.4,4.454,r_re_order
12,5,r,85,tony,27,1,2.646,1.783,0.45,4.151,r_re_order
12,6,r,80,cory,47,1,2.266,3.451,0.2,3.341,r_re_order
12,7,r,75,michae,135,1,2.173,1.84,0.25,3.188,r_re_order
12,8,r,95,scott,152,1,2.262,2.55,0.15,3.369,r_re_order
12,9,r,90,keith,90,1,2.596,1.186,0.4,2.993,r_re_order
12,10,r,55,tom,161,0,2.919,1.813,0.25,2.394,r_re_order
12,11,r,90,connor,153,1,2.899,2.065,0.15,3.816,r_re_order
12,12,r,50,anthony,63,0,2.378,2.089,0.35,3.4,r_re_order
12,13,r,70,tyler,81,0,2.595,1.581,0.25,3.5,r_re_order
12,14,r,95,ethan,20,1,2.381,1.434,0.15,3.409,r_re_order
12,15,r,65,paul,83,0,1.756,1.341,0.25,2.827,r_re_order
12,16,r,70,edward,54,1,2.161,1.124,0.4,3.341,r_re_order
12,17,r,85,kyle,23,1,2.537,2.329,0.35,2.966,r_re_order
12,18,r,80,blake,22,1,2.36,1.188,0.05,3.06,r_re_order
12,19,r,60,joseph,169,0,2.523,1.122,0.4,3.335,r_re_order
12,20,r,50,nathan,160,0,2.27,1.173,0.5,6.99,r_re_order
13,1,r,55,tom,161,0,3.852,1.06,0.1,2.851,re_r_order
13,2,r,60,mark,116,0,2.083,1.197,0.1,2.595,re_r_order
13,3,r,75,joshua,62,0,1.093,1.583,0.15,1.704,re_r_order
13,4,r,70,edward,54,0,1.813,1.106,0.1,2.255,re_r_order
13,5,r,85,kyle,23,1,1.277,1.044,0.15,1.984,re_r_order
13,6,r,80,blake,22,1,1.34,1.067,0.15,1.596,re_r_order
13,7,r,50,anthony,63,0,2.163,0.973,0.2,3.298,re_r_order
13,8,r,80,cory,47,1,1.735,0.96,0.25,4.462,re_r_order
13,9,r,75,michae,135,0,2.087,1.075,0.2,2.513,re_r_order
13,10,r,70,tyler,81,0,1.656,0.844,0.2,1.947,re_r_order
13,11,r,85,tony,27,1,1.708,1.093,0.1,2.1,re_r_order
13,12,r,60,joseph,169,0,1.359,0.972,0.15,2.323,re_r_order
13,13,r,55,logan,144,0,1.494,0.982,0.1,1.806,re_r_order
13,14,r,65,paul,83,0,1.736,2.216,0.2,3.197,re_r_order
13,15,r,50,nathan,160,0,1.996,1.032,0.1,2.006,re_r_order
13,16,r,95,ethan,20,1,1.763,1.013,0.05,3.315,re_r_order
13,17,r,95,scott,152,1,1.94,0.95,0.2,6.249,re_r_order
13,18,r,90,connor,153,1,1.935,0.866,0.1,11.099,re_r_order
13,19,r,65,patric,145,0,1.838,1.199,0.2,8.171,re_r_order
13,20,r,90,keith,90,1,1.634,0.983,0.25,1.643,re_r_order
14,1,r,60,mark,116,0,2.516,2.209,0.05,4.554,re_r_order
14,2,r,80,cory,47,1,3.429,1.387,0.05,4.328,re_r_order
14,3,r,55,logan,144,0,1.566,1.627,0,2.679,re_r_order
14,4,r,95,scott,152,1,3.017,2.019,0.1,2.125,re_r_order
14,5,r,50,anthony,63,0,2.115,1.643,0.25,3.709,re_r_order
14,6,r,65,patric,145,0,2.52,1.389,0.2,3.774,re_r_order
14,7,r,90,keith,90,1,1.555,2.049,0.05,2.39,re_r_order
14,8,r,65,paul,83,0,1.77,1.203,0.15,3.07,re_r_order
14,9,r,55,tom,161,0,2.07,1.561,0.05,3.032,re_r_order
14,10,r,75,joshua,62,0,2.066,1.529,0.4,2.242,re_r_order
14,11,r,70,edward,54,0,2.359,1.582,0.05,4.795,re_r_order
14,12,r,75,michae,135,0,1.801,1.717,0,2.725,re_r_order
14,13,r,85,tony,27,1,1.355,1.621,0.05,2.086,re_r_order
14,14,r,90,connor,153,1,2.372,1.268,0.05,2.729,re_r_order
14,15,r,95,ethan,20,1,1.629,1.464,0.15,2.64,re_r_order
14,16,r,80,blake,22,1,1.435,1.439,0.05,3.354,re_r_order
14,17,r,50,nathan,160,0,1.942,1.738,0.15,3.516,re_r_order
14,18,r,85,kyle,23,1,1.417,1.588,0.05,3.075,re_r_order
14,19,r,60,joseph,169,0,2.148,1.695,0.05,2.571,re_r_order
14,20,r,70,tyler,81,0,1.829,1.171,0.35,4.474,re_r_order
15,1,r,60,mark,116,0,2.165,1.888,0.2,3.452,re_r_order
15,2,r,55,logan,144,0,1.949,2.169,0.15,2.945,re_r_order
15,3,r,65,paul,83,0,2.266,1.941,0.35,3.116,re_r_order
15,4,r,85,tony,27,0,1.148,1.027,0.15,22.566,re_r_order
15,5,r,75,joshua,62,0,1.514,1.036,0.15,2.044,re_r_order
15,6,r,85,kyle,23,0,1.502,1.302,0.25,2.058,re_r_order
15,7,r,70,edward,54,0,1.723,1.548,0.15,2.282,re_r_order
15,8,r,90,connor,153,0,3.213,1.918,0.15,6.042,re_r_order
15,9,r,70,tyler,81,0,2.025,1.535,0.3,1.298,re_r_order
15,10,r,95,scott,152,0,1.301,0.816,0.15,2.027,re_r_order
15,11,r,90,keith,90,0,1.37,1.134,0.1,1.669,re_r_order
15,12,r,65,patric,145,0,1.479,1.718,0.05,1.388,re_r_order
15,13,r,75,michae,135,0,2.778,0.936,0.3,2.322,re_r_order
15,14,r,55,tom,161,0,1.573,1.204,0.1,1.652,re_r_order
15,15,r,50,anthony,63,0,1.551,0.96,0.2,1.52,re_r_order
15,16,r,50,nathan,160,0,1.557,1.01,0.15,1.103,re_r_order
15,17,r,60,joseph,169,0,1.164,0.916,0.15,1.566,re_r_order
15,18,r,95,ethan,20,0,1.439,0.935,0.2,1.198,re_r_order
15,19,r,80,cory,47,0,1.282,0.891,0.1,1.815,re_r_order
15,20,r,80,blake,22,0,2.342,0.927,0.1,1.949,re_r_order
16,1,r,90,connor,153,0,3.287,2.374,0,4.434,re_r_order
16,2,r,75,joshua,62,0,2.514,1.853,0,3.748,re_r_order
16,3,r,75,michae,135,0,2.593,2.404,0.2,2.879,re_r_order
16,4,r,55,tom,161,0,2.761,1.515,0.25,2.433,re_r_order
16,5,r,50,anthony,63,0,2.196,1.749,0.25,2.569,re_r_order
16,6,r,60,joseph,169,0,3.406,1.569,0.2,2.981,re_r_order
16,7,r,90,keith,90,0,2.019,1.63,0.3,2.229,re_r_order
16,8,r,85,tony,27,0,1.764,1.636,0.2,2.504,re_r_order
16,9,r,65,patric,145,0,2.171,1.59,0.25,3.241,re_r_order
16,10,r,95,ethan,20,1,2.57,1.532,0.3,2.113,re_r_order
16,11,r,55,logan,144,0,2.353,1.597,0.05,3.47,re_r_order
16,12,r,80,blake,22,0,2.203,1.74,0.25,2.237,re_r_order
16,13,r,85,kyle,23,0,3.51,1.622,0.35,2.741,re_r_order
16,14,r,70,tyler,81,0,2.388,1.704,0.35,2.617,re_r_order
16,15,r,95,scott,152,1,2.28,1.832,0.25,2.642,re_r_order
16,16,r,70,edward,54,0,2.27,4.417,0.3,2.864,re_r_order
16,17,r,65,paul,83,0,1.875,1.716,0,16.416,re_r_order
16,18,r,50,nathan,160,0,1.924,1.596,0.3,2.428,re_r_order
16,19,r,80,cory,47,0,3.649,1.773,0.2,2.708,re_r_order
16,20,r,60,mark,116,0,2.445,2.677,0.2,4.306,re_r_order
17,1,r,55,tom,161,0,2.643,2.011,0.1,2.889,re_r_order
17,2,r,80,cory,47,1,2.563,1.263,0.3,2.61,re_r_order
17,3,r,65,paul,83,0,2.732,1.339,0.3,3.201,re_r_order
17,4,r,50,nathan,160,0,2.469,1.646,0.4,2.933,re_r_order
17,5,r,95,scott,152,1,3.068,1.035,0.1,2.468,re_r_order
17,6,r,95,ethan,20,1,2.4,1.106,0.3,3.064,re_r_order
17,7,r,70,tyler,81,0,2.067,1.065,0.25,2.223,re_r_order
17,8,r,70,edward,54,0,1.839,0.973,0.15,2.458,re_r_order
17,9,r,85,kyle,23,1,1.947,0.893,0.05,3.279,re_r_order
17,10,r,60,mark,116,0,1.875,0.985,0.2,3.537,re_r_order
17,11,r,65,patric,145,0,2.286,0.899,0.1,2.665,re_r_order
17,12,r,90,connor,153,1,1.842,1.084,0.05,4.237,re_r_order
17,13,r,55,logan,144,0,1.539,1.015,0.05,3.211,re_r_order
17,14,r,80,blake,22,1,1.786,1.221,0.2,2.391,re_r_order
17,15,r,60,joseph,169,0,2.019,1.134,0.3,2.802,re_r_order
17,16,r,85,tony,27,1,1.66,0.971,0.05,3.115,re_r_order
17,17,r,90,keith,90,1,1.552,0.934,0.25,2.9,re_r_order
17,18,r,75,michae,135,1,2.025,1.072,0.1,2.7,re_r_order
17,19,r,75,joshua,62,1,1.79,0.979,0.35,2.494,re_r_order
17,20,r,50,anthony,63,0,2.279,0.849,0.45,3.286,re_r_order
18,1,r,55,tom,161,0,2.792,3.359,0.3,7.936,r_re_order
18,2,r,80,blake,22,0,9.773,1.759,0.15,3.292,r_re_order
18,3,r,60,mark,116,0,2.133,1.843,0.25,3.097,r_re_order
18,4,r,65,paul,83,0,2.187,1.662,0.25,4.017,r_re_order
18,5,r,55,logan,144,0,2.255,1.708,0.4,4.989,r_re_order
18,6,r,75,michae,135,0,2.799,1.488,0.2,3.014,r_re_order
18,7,r,50,nathan,160,0,2.516,1.623,0.4,4.098,r_re_order
18,8,r,50,anthony,63,0,2.712,1.268,0.4,4.975,r_re_order
18,9,r,85,tony,27,0,1.798,1.199,0.25,3.603,r_re_order
18,10,r,85,kyle,23,0,1.836,1.433,0.15,2.636,r_re_order
18,11,r,75,joshua,62,0,1.868,5.087,0.45,2.759,r_re_order
18,12,r,90,connor,153,0,1.588,1.09,0.35,3.864,r_re_order
18,13,r,70,tyler,81,0,2.156,1.25,0.25,2.479,r_re_order
18,14,r,95,ethan,20,0,2.585,1.137,0.15,2.694,r_re_order
18,15,r,95,scott,152,0,2.058,1.15,0.25,3.303,r_re_order
18,16,r,70,edward,54,0,1.605,1.198,0.2,2.678,r_re_order
18,17,r,60,joseph,169,0,2.966,1.277,0.3,3.94,r_re_order
18,18,r,65,patric,145,0,1.793,0.955,0.3,3.292,r_re_order
18,19,r,90,keith,90,0,1.839,1.09,0.1,3.681,r_re_order
18,20,r,80,cory,47,0,2.042,0.979,0.05,2.93,r_re_order
19,1,r,95,scott,152,0,1.954,2.365,0.05,2.848,re_r_order
19,2,r,70,edward,54,0,1.339,1.201,0.15,1.581,re_r_order
19,3,r,90,keith,90,0,1.952,18.225,0.25,1.1,re_r_order
19,4,r,55,tom,161,0,1.953,1.02,0.2,1.512,re_r_order
19,5,r,75,joshua,62,0,1.347,0.87,0.25,1.216,re_r_order
19,6,r,50,anthony,63,0,1.699,1.059,0.25,1.166,re_r_order
19,7,r,80,cory,47,0,2.662,1.373,0.3,1.621,re_r_order
19,8,r,95,ethan,20,0,3.178,2.556,0.2,1.044,re_r_order
19,9,r,75,michae,135,0,1.824,5.055,0.25,2.985,re_r_order
19,10,r,85,tony,27,0,1.608,1.136,0.15,1.493,re_r_order
19,11,r,90,connor,153,0,2.03,1.464,0.25,2.211,re_r_order
19,12,r,70,tyler,81,0,1.59,1.051,0.15,1.499,re_r_order
19,13,r,80,blake,22,0,1.808,0.948,0.25,1.399,re_r_order
19,14,r,50,nathan,160,0,1.69,1.216,0.2,1.207,re_r_order
19,15,r,65,patric,145,0,1.756,1.064,0.2,2.017,re_r_order
19,16,r,60,joseph,169,0,2.046,1.443,0.2,1.497,re_r_order
19,17,r,85,kyle,23,0,1.89,1.218,0.15,1.429,re_r_order
19,18,r,60,mark,116,0,1.75,1.305,0.15,1.469,re_r_order
19,19,r,65,paul,83,0,1.753,1.202,0.4,1.59,re_r_order
19,20,r,55,logan,144,0,1.414,1.334,0.25,2.101,re_r_order
20,1,r,70,edward,54,0,2.459,3.429,0.2,2.79,re_r_order
20,2,r,95,ethan,20,1,1.951,1.146,0.2,1.868,re_r_order
20,3,r,80,cory,47,0,1.541,1.094,0.2,2.003,re_r_order
20,4,r,60,joseph,169,0,2.34,0.974,0.2,1.28,re_r_order
20,5,r,50,nathan,160,0,1.338,0.922,0.2,1.501,re_r_order
20,6,r,75,michae,135,0,1.427,0.918,0.2,1.567,re_r_order
20,7,r,65,paul,83,0,1.602,0.876,0.2,1.548,re_r_order
20,8,r,70,tyler,81,0,1.598,0.842,0.2,1.342,re_r_order
20,9,r,80,blake,22,0,1.118,1.538,0.2,1.254,re_r_order
20,10,r,85,tony,27,0,1.474,0.873,0.2,1.534,re_r_order
20,11,r,90,connor,153,0,1.243,4.324,0.2,1.84,re_r_order
20,12,r,50,anthony,63,0,1.111,1.411,0.2,1.182,re_r_order
20,13,r,55,tom,161,0,1.395,0.962,0.2,1.315,re_r_order
20,14,r,65,patric,145,0,1.532,0.846,0.2,2.333,re_r_order
20,15,r,95,scott,152,1,2.522,0.961,0.2,1.518,re_r_order
20,16,r,90,keith,90,0,1.909,1.351,0.2,1.315,re_r_order
20,17,r,60,mark,116,0,1.499,1.441,0.2,1.661,re_r_order
20,18,r,55,logan,144,0,1.067,0.899,0.2,1.122,re_r_order
20,19,r,75,joshua,62,0,1.674,0.984,0.2,1.439,re_r_order
20,20,r,85,kyle,23,0,1.143,1.382,0.2,1.403,re_r_order
21,1,r,90,keith,90,0,2.755,3.351,0.05,3.476,re_r_order
21,2,r,50,nathan,160,0,1.88,2.134,0.15,2.994,re_r_order
21,3,r,55,logan,144,0,2.063,2.251,0.05,1.742,re_r_order
21,4,r,75,michae,135,0,1.78,1.752,0.05,2.632,re_r_order
21,5,r,55,tom,161,0,1.835,1.248,0.15,2.677,re_r_order
21,6,r,80,cory,47,0,1.501,1.21,0.05,1.613,re_r_order
21,7,r,85,tony,27,0,1.597,1.244,0.15,1.805,re_r_order
21,8,r,65,paul,83,0,1.598,1.366,0.1,1.994,re_r_order
21,9,r,65,patric,145,0,1.376,1.086,0.05,1.446,re_r_order
21,10,r,80,blake,22,0,1.722,1.002,0.15,1.64,re_r_order
21,11,r,50,anthony,63,0,1.803,8.094,0.1,2.369,re_r_order
21,12,r,70,tyler,81,0,1.366,1.075,0.2,1.438,re_r_order
21,13,r,95,scott,152,0,1.218,0.923,0.25,1.358,re_r_order
21,14,r,95,ethan,20,0,1.209,0.971,0.05,1.196,re_r_order
21,15,r,60,mark,116,0,1.277,1.014,0.15,1.544,re_r_order
21,16,r,70,edward,54,0,1.228,1.007,0.25,1.836,re_r_order
21,17,r,85,kyle,23,0,1.464,0.766,0.1,2.176,re_r_order
21,18,r,75,joshua,62,0,1.093,1.203,0.2,1.433,re_r_order
21,19,r,60,joseph,169,0,1.881,1.145,0.1,1.37,re_r_order
21,20,r,90,connor,153,0,1.227,0.956,0.1,2.023,re_r_order
22,1,r,55,logan,144,0,3.308,2.528,0,4.642,r_re_order
22,2,r,90,keith,90,1,1.959,1.847,0.3,2.7,r_re_order
22,3,r,70,edward,54,1,2.162,1.79,0.4,2.677,r_re_order
22,4,r,60,joseph,169,0,2.374,2.257,0.15,4.013,r_re_order
22,5,r,75,joshua,62,1,2.826,2.104,0.3,3.049,r_re_order
22,6,r,65,patric,145,1,2.454,1.589,0.4,2.417,r_re_order
22,7,r,50,nathan,160,0,2.587,2.898,0.1,37.153,r_re_order
22,8,r,85,kyle,23,1,2.878,3.957,0.2,3.593,r_re_order
22,9,r,50,anthony,63,0,4.615,1.969,0.4,3.293,r_re_order
22,10,r,75,michae,135,1,2.135,1.639,0.05,20.208,r_re_order
22,11,r,80,cory,47,1,3.029,2.509,0.1,1.891,r_re_order
22,12,r,65,paul,83,1,1.686,2.622,0.05,7.826,r_re_order
22,13,r,95,scott,152,1,2.313,1.513,0.35,2.318,r_re_order
22,14,r,90,connor,153,1,1.865,1.3,0.05,3.641,r_re_order
22,15,r,60,mark,116,0,2.662,1.385,0.45,1.794,r_re_order
22,16,r,80,blake,22,1,3.611,1.338,0.05,1.999,r_re_order
22,17,r,85,tony,27,1,2.206,1.432,0.15,8.271,r_re_order
22,18,r,70,tyler,81,1,1.89,3.003,0.1,2.531,r_re_order
22,19,r,55,tom,161,0,2.235,1.29,0.15,2.069,r_re_order
22,20,r,95,ethan,20,1,8.001,2.344,0.05,1.989,r_re_order
23,1,r,95,scott,152,1,9.082,4.971,0.15,11.032,r_re_order
23,2,r,60,mark,116,0,2.58,3.075,0.25,4.987,r_re_order
23,3,r,55,logan,144,0,7.179,2.689,0.3,7.96,r_re_order
23,4,r,75,michae,135,1,2.753,3.125,0.15,15.091,r_re_order
23,5,r,90,connor,153,1,2.663,2.117,0.15,2.908,r_re_order
23,6,r,65,patric,145,0,2.84,1.814,0.3,8.697,r_re_order
23,7,r,75,joshua,62,0,4.593,2.344,0.3,3.867,r_re_order
23,8,r,55,tom,161,0,2.298,1.651,0.15,3.765,r_re_order
23,9,r,90,keith,90,1,2.694,1.599,0.1,4.697,r_re_order
23,10,r,85,kyle,23,1,2.452,1.667,0.2,7.596,r_re_order
23,11,r,50,nathan,160,0,3.1,1.576,0.25,3.284,r_re_order
23,12,r,70,tyler,81,0,3.429,4.315,0.2,2.994,r_re_order
23,13,r,80,cory,47,1,3.498,1.602,0.15,9.724,r_re_order
23,14,r,95,ethan,20,1,3.712,2.068,0.2,3.978,r_re_order
23,15,r,80,blake,22,1,2.381,1.969,0.15,2.909,r_re_order
23,16,r,60,joseph,169,0,3.015,1.496,0.25,4.095,r_re_order
23,17,r,70,edward,54,0,2.248,1.681,0.25,4.917,r_re_order
23,18,r,50,anthony,63,0,2.606,1.842,0.3,4.724,r_re_order
23,19,r,65,paul,83,0,2.306,2.116,0.25,4.725,r_re_order
23,20,r,85,tony,27,1,3.154,1.436,0.2,3.6,r_re_order
24,1,r,80,cory,47,0,1.951,13.544,0.15,3.521,re_r_order
24,2,r,55,tom,161,0,2.023,1.837,0.15,2.777,re_r_order
24,3,r,95,scott,152,0,2.343,1.657,0.05,4.148,re_r_order
24,4,r,85,kyle,23,0,2.026,1.433,0.25,1.727,re_r_order
24,5,r,55,logan,144,0,1.868,1.241,0.2,1.432,re_r_order
24,6,r,95,ethan,20,0,2.145,1.547,0.2,1.158,re_r_order
24,7,r,65,paul,83,0,2.247,3.035,0.15,1.593,re_r_order
24,8,r,50,nathan,160,0,2.372,1.313,0.15,1.97,re_r_order
24,9,r,75,michae,135,0,2.189,3.705,0.1,3.14,re_r_order
24,10,r,70,tyler,81,0,2.085,2.343,0.3,2.802,re_r_order
24,11,r,85,tony,27,0,1.763,1.851,0.25,4.333,re_r_order
24,12,r,80,blake,22,0,1.752,1.192,0.05,1.654,re_r_order
24,13,r,50,anthony,63,0,1.973,1.211,0.35,2.27,re_r_order
24,14,r,70,edward,54,0,2.285,1.29,0.2,1.814,re_r_order
24,15,r,60,mark,116,0,1.983,1.429,0.05,2.624,re_r_order
24,16,r,60,joseph,169,0,1.812,0.977,0.1,1.852,re_r_order
24,17,r,75,joshua,62,0,1.655,0.946,0.2,3.046,re_r_order
24,18,r,65,patric,145,0,1.849,0.998,0.05,1.301,re_r_order
24,19,r,90,connor,153,0,1.774,1.83,0.05,1.362,re_r_order
24,20,r,90,keith,90,0,1.789,1.053,0.2,1.629,re_r_order
25,1,r,80,blake,22,1,2.679,2.797,0.15,3.798,re_r_order
25,2,r,50,anthony,63,0,1.762,1.601,0.3,2.531,re_r_order
25,3,r,65,patric,145,0,1.538,1.466,0.4,2.123,re_r_order
25,4,r,75,michae,135,1,1.96,1.387,0.2,1.692,re_r_order
25,5,r,90,keith,90,1,2.902,1.605,0.3,3.788,re_r_order
25,6,r,50,nathan,160,0,1.937,1.092,0.4,4.343,re_r_order
25,7,r,85,tony,27,1,1.639,1.116,0.3,2.085,re_r_order
25,8,r,95,scott,152,1,2.187,0.986,0.05,2.919,re_r_order
25,9,r,95,ethan,20,1,1.912,1.259,0.15,3.155,re_r_order
25,10,r,55,tom,161,0,2.554,1.049,0.15,3.077,re_r_order
25,11,r,85,kyle,23,1,1.735,1.412,0.3,2.178,re_r_order
25,12,r,90,connor,153,1,1.288,1.704,0.1,3.687,re_r_order
25,13,r,70,edward,54,1,3.713,1.312,0.25,2.309,re_r_order
25,14,r,60,mark,116,0,2.615,0.997,0.35,1.951,re_r_order
25,15,r,75,joshua,62,1,3.188,10.068,0.45,2.343,re_r_order
25,16,r,65,paul,83,0,1.467,0.972,0.2,11.999,re_r_order
25,17,r,60,joseph,169,0,1.616,1.32,0.25,5.135,re_r_order
25,18,r,70,tyler,81,0,1.493,1.527,0.35,2.684,re_r_order
25,19,r,55,logan,144,0,1.759,1.129,0.1,2.526,re_r_order
25,20,r,80,cory,47,1,2.104,1.003,0.2,2.453,re_r_order
26,1,r,75,joshua,62,1,4.901,4.293,0.15,4.412,re_r_order
26,2,r,85,tony,27,1,3.404,4.386,0.05,3.743,re_r_order
26,3,r,90,keith,90,1,4.309,1.74,0.25,3.157,re_r_order
26,4,r,90,connor,153,1,3.811,2.89,0.15,5.262,re_r_order
26,5,r,80,blake,22,1,2.775,1.661,0.2,2.529,re_r_order
26,6,r,55,logan,144,0,3.122,1.749,0.25,3.637,re_r_order
26,7,r,75,michae,135,1,2.36,1.938,0.15,2.957,re_r_order
26,8,r,95,ethan,20,1,2.745,1.524,0.25,2.562,re_r_order
26,9,r,65,paul,83,0,2.583,1.733,0.2,2.401,re_r_order
26,10,r,70,tyler,81,0,2.131,1.58,0.2,3.563,re_r_order
26,11,r,95,scott,152,1,2.313,2.088,0.05,3.058,re_r_order
26,12,r,55,tom,161,0,2.667,1.497,0.2,3.126,re_r_order
26,13,r,85,kyle,23,1,2.946,1.615,0.15,2.433,re_r_order
26,14,r,65,patric,145,0,3.253,2.525,0.1,3.807,re_r_order
26,15,r,60,joseph,169,0,2.539,1.348,0.2,3.897,re_r_order
26,16,r,70,edward,54,0,2.518,1.315,0.15,2.688,re_r_order
26,17,r,50,anthony,63,0,2.457,1.879,0.25,2.689,re_r_order
26,18,r,50,nathan,160,0,2.111,1.42,0.15,3.529,re_r_order
26,19,r,60,mark,116,0,2.952,1.629,0.1,2.536,re_r_order
26,20,r,80,cory,47,1,2.654,1.495,0.1,2.524,re_r_order
27,1,r,75,joshua,62,0,3.606,5.751,0.35,3.463,re_r_order
27,2,r,55,tom,161,0,4.336,2.072,0.4,3.061,re_r_order
27,3,r,65,paul,83,0,2.108,1.876,0.15,2.195,re_r_order
27,4,r,55,logan,144,0,2.222,1.626,0.1,3.324,re_r_order
27,5,r,50,nathan,160,0,1.578,1.522,0.05,3.101,re_r_order
27,6,r,50,anthony,63,0,2.322,1.416,0.35,3.762,re_r_order
27,7,r,60,mark,116,0,1.768,1.246,0.2,3.127,re_r_order
27,8,r,95,scott,152,0,2.919,1.717,0.05,2.4,re_r_order
27,9,r,65,patric,145,0,2.438,1.256,0.25,4.677,re_r_order
27,10,r,95,ethan,20,0,1.974,1.258,0.3,3.793,re_r_order
27,11,r,85,kyle,23,0,1.514,1.315,0.05,2.636,re_r_order
27,12,r,85,tony,27,0,1.799,1.49,0.3,3.205,re_r_order
27,13,r,70,edward,54,0,2.415,1.255,0.4,2.245,re_r_order
27,14,r,70,tyler,81,0,2.146,1.176,0.5,2.519,re_r_order
27,15,r,90,keith,90,0,2.23,2.492,0.2,1.931,re_r_order
27,16,r,80,cory,47,0,1.849,1.163,0.2,1.977,re_r_order
27,17,r,75,michae,135,0,3.839,2.059,0.4,1.532,re_r_order
27,18,r,80,blake,22,0,2.124,2.15,0.5,1.636,re_r_order
27,19,r,60,joseph,169,0,1.799,1.838,0.2,2.914,re_r_order
27,20,r,90,connor,153,0,1.797,1.05,0.1,3.068,re_r_order
28,1,r,75,joshua,62,1,3.781,5.684,0.25,8.894,re_r_order
28,2,r,60,mark,116,0,2.496,1.773,0.2,2.227,re_r_order
28,3,r,50,nathan,160,0,2.202,2.566,0.35,1.801,re_r_order
28,4,r,95,ethan,20,1,1.741,2.076,0.1,2.372,re_r_order
28,5,r,60,joseph,169,0,1.845,1.737,0.2,2.587,re_r_order
28,6,r,85,kyle,23,1,1.756,1.545,0.1,2.037,re_r_order
28,7,r,75,michae,135,0,2.284,1.883,0.3,2.06,re_r_order
28,8,r,50,anthony,63,0,2.123,1.961,0.3,3.038,re_r_order
28,9,r,70,tyler,81,0,2.381,1.899,0.15,3.001,re_r_order
28,10,r,90,keith,90,1,1.946,1.548,0.3,4.251,re_r_order
28,11,r,85,tony,27,1,2.127,1.852,0.35,7.345,re_r_order
28,12,r,55,logan,144,0,2.501,1.602,0.05,5.298,re_r_order
28,13,r,70,edward,54,0,2.401,2.993,0.25,1.881,re_r_order
28,14,r,55,tom,161,0,2.269,1.946,0.15,4.126,re_r_order
28,15,r,65,patric,145,0,1.845,2.401,0.25,16.809,re_r_order
28,16,r,80,cory,47,1,2.824,2.118,0.3,5.631,re_r_order
28,17,r,65,paul,83,0,2.491,1.757,0.2,2.155,re_r_order
28,18,r,80,blake,22,1,2.648,1.65,0.35,4.158,re_r_order
28,19,r,90,connor,153,1,2.527,1.349,0.1,14.955,re_r_order
28,20,r,95,scott,152,1,2.588,2.901,0.25,1.734,re_r_order
29,1,r,55,logan,144,0,5.438,8.968,0.05,4.585,re_r_order
29,2,r,75,michae,135,0,2.833,3.195,0.4,6.685,re_r_order
29,3,r,65,patric,145,0,1.408,1.08,0.45,2.212,re_r_order
29,4,r,60,mark,116,0,1.468,2.776,0.4,3.383,re_r_order
29,5,r,85,tony,27,1,1.316,1.064,0.45,2.491,re_r_order
29,6,r,50,nathan,160,0,1.894,1.151,0.5,1.97,re_r_order
29,7,r,50,anthony,63,0,1.853,1.61,0.35,2.95,re_r_order
29,8,r,85,kyle,23,1,2.095,0.979,0.1,3.925,re_r_order
29,9,r,60,joseph,169,0,1.516,0.98,0.4,3.152,re_r_order
29,10,r,80,cory,47,0,2.055,0.946,0.45,2.907,re_r_order
29,11,r,55,tom,161,0,1.575,1.654,0.45,2.869,re_r_order
29,12,r,95,ethan,20,1,1.318,1.082,0.3,3.386,re_r_order
29,13,r,90,connor,153,1,3.062,0.923,0.1,3.655,re_r_order
29,14,r,95,scott,152,1,1.268,1.412,0.2,3.788,re_r_order
29,15,r,90,keith,90,1,1.59,0.867,0.25,2.637,re_r_order
29,16,r,70,tyler,81,0,1.372,1.067,0.45,2.83,re_r_order
29,17,r,65,paul,83,0,1.478,1.222,0.25,2.557,re_r_order
29,18,r,70,edward,54,0,1.416,1.161,0.4,5.212,re_r_order
29,19,r,75,joshua,62,0,1.464,1.674,0.45,2.688,re_r_order
29,20,r,80,blake,22,0,1.307,0.975,0.25,2.768,re_r_order
30,1,r,60,mark,116,0,2.457,2.231,0.25,10.009,r_re_order
30,2,r,85,kyle,23,1,3.106,1.759,0.15,3.309,r_re_order
30,3,r,70,edward,54,0,1.995,1.339,0.35,2.481,r_re_order
30,4,r,70,tyler,81,0,1.903,1.098,0.35,2.888,r_re_order
30,5,r,65,patric,145,0,2.144,1.109,0.25,6.14,r_re_order
30,6,r,65,paul,83,0,2.31,1.156,0.15,2.411,r_re_order
30,7,r,50,nathan,160,0,1.654,1.172,0.15,2.512,r_re_order
30,8,r,60,joseph,169,0,1.827,0.852,0.25,2.527,r_re_order
30,9,r,75,joshua,62,0,1.839,1.429,0.2,2.822,r_re_order
30,10,r,90,keith,90,1,1.752,1.128,0.1,3.106,r_re_order
30,11,r,55,logan,144,0,2.151,1.012,0.05,2.447,r_re_order
30,12,r,95,scott,152,1,2.991,1.193,0.1,3.894,r_re_order
30,13,r,50,anthony,63,0,1.872,1.033,0.35,2.884,r_re_order
30,14,r,85,tony,27,1,1.815,1.13,0.3,4.301,r_re_order
30,15,r,80,cory,47,1,1.618,1.041,0.35,3.168,r_re_order
30,16,r,55,tom,161,0,1.759,1.096,0.1,2.396,r_re_order
30,17,r,95,ethan,20,1,2.055,1.421,0.1,2.698,r_re_order
30,18,r,80,blake,22,1,1.537,1.038,0.35,2.667,r_re_order
30,19,r,75,michae,135,0,1.347,0.925,0.25,2.724,r_re_order
30,20,r,90,connor,153,1,3.036,0.904,0.25,2.678,r_re_order
31,1,r,80,cory,47,0,2.692,1.952,0.1,4.413,r_re_order
31,2,r,60,mark,116,0,2.368,1.819,0.05,2.796,r_re_order
31,3,r,65,patric,145,0,4.41,0.973,0,4.453,r_re_order
31,4,r,90,keith,90,1,3.176,0.924,0.5,4.974,r_re_order
31,5,r,90,connor,153,1,2.415,0.953,0.2,3.73,r_re_order
31,6,r,80,blake,22,0,2.916,0.857,0.25,3.347,r_re_order
31,7,r,55,logan,144,0,2.2,1.63,0.1,2.853,r_re_order
31,8,r,50,nathan,160,0,2.828,1.246,0.4,3.048,r_re_order
31,9,r,95,ethan,20,1,3.553,1.055,0.15,3.014,r_re_order
31,10,r,70,tyler,81,0,2.548,1.26,0.3,2.683,r_re_order
31,11,r,50,anthony,63,0,2.904,1.191,0.15,4.467,r_re_order
31,12,r,75,michae,135,0,2.677,0.811,0.1,2.634,r_re_order
31,13,r,70,edward,54,0,2.037,1.077,0.35,2.975,r_re_order
31,14,r,85,tony,27,1,2.247,0.99,0.1,2.499,r_re_order
31,15,r,85,kyle,23,1,2.93,1.058,0.05,2.808,r_re_order
31,16,r,95,scott,152,1,2.213,1.112,0.25,3.499,r_re_order
31,17,r,75,joshua,62,0,2.097,1.427,0.4,2.418,r_re_order
31,18,r,60,joseph,169,0,2.935,0.996,0.25,2.519,r_re_order
31,19,r,65,paul,83,0,2.297,1.323,0.45,3.101,r_re_order
31,20,r,55,tom,161,0,2.069,1.348,0.3,2.283,r_re_order
32,1,r,75,michae,135,1,4.559,3.536,0.05,6.718,r_re_order
32,2,r,80,cory,47,1,2.781,2.479,0.2,7.068,r_re_order
32,3,r,55,logan,144,0,3.435,2.039,0.1,4.78,r_re_order
32,4,r,75,joshua,62,1,4.105,1.768,0.3,4.588,r_re_order
32,5,r,70,tyler,81,1,3.212,1.786,0.35,4.134,r_re_order
32,6,r,60,joseph,169,0,2.401,1.733,0.25,3.366,r_re_order
32,7,r,65,paul,83,1,2.039,1.443,0.2,4.424,r_re_order
32,8,r,60,mark,116,0,1.824,1.508,0.1,3.349,r_re_order
32,9,r,80,blake,22,1,1.866,1.709,0.1,4.487,r_re_order
32,10,r,70,edward,54,1,3.172,1.414,0.25,3.637,r_re_order
32,11,r,65,patric,145,1,2.723,1.316,0.25,3.638,r_re_order
32,12,r,90,connor,153,1,3.21,1.568,0.05,2.802,r_re_order
32,13,r,50,anthony,63,0,2.224,1.737,0.4,3.363,r_re_order
32,14,r,85,kyle,23,1,1.8,1.295,0.25,3.103,r_re_order
32,15,r,95,ethan,20,1,2.777,1.473,0.1,2.521,r_re_order
32,16,r,50,nathan,160,0,2.602,1.464,0.35,3.015,r_re_order
32,17,r,85,tony,27,1,1.502,1.348,0.2,2.601,r_re_order
32,18,r,90,keith,90,1,2.389,1.395,0.25,3.731,r_re_order
32,19,r,55,tom,161,0,3,1.209,0.25,2.238,r_re_order
32,20,r,95,scott,152,1,1.92,1.477,0.05,2.893,r_re_order
33,1,r,50,anthony,63,0,3.909,3.659,0.4,9.478,r_re_order
33,2,r,75,joshua,62,0,4.165,4.06,0.45,3.949,r_re_order
33,3,r,55,logan,144,0,2.815,3.907,0.4,2.624,r_re_order
33,4,r,50,nathan,160,0,5.171,1.633,0.35,4.485,r_re_order
33,5,r,85,tony,27,0,5.65,3.366,0.35,4.807,r_re_order
33,6,r,90,connor,153,1,6.851,1.862,0.3,3.281,r_re_order
33,7,r,95,scott,152,1,5.337,1.75,0.25,3.32,r_re_order
33,8,r,75,michae,135,0,3.373,2.1,0.4,5.235,r_re_order
33,9,r,80,blake,22,0,1.749,1.521,0.25,5.707,r_re_order
33,10,r,70,edward,54,0,2.243,1.293,0.45,4.784,r_re_order
33,11,r,70,tyler,81,0,2.629,1.543,0.4,4.798,r_re_order
33,12,r,65,paul,83,0,2.002,1.448,0.45,3.871,r_re_order
33,13,r,60,mark,116,0,2.396,1.614,0.35,2.676,r_re_order
33,14,r,60,joseph,169,0,2.457,2.549,0.4,3.044,r_re_order
33,15,r,90,keith,90,0,3.48,1.609,0.4,4.311,r_re_order
33,16,r,65,patric,145,0,3.57,1.378,0.25,3.246,r_re_order
33,17,r,95,ethan,20,1,4.684,1.61,0.35,3.438,r_re_order
33,18,r,85,kyle,23,0,3.444,1.447,0.4,2.926,r_re_order
33,19,r,55,tom,161,0,2.658,1.483,0.45,4.46,r_re_order
33,20,r,80,cory,47,0,2.982,1.422,0.4,4.057,r_re_order
34,1,r,65,patric,145,0,3.255,3.079,0.05,4.183,re_r_order
34,2,r,95,scott,152,1,2.465,1.769,0.3,1.98,re_r_order
34,3,r,80,blake,22,1,3.135,1.781,0.4,2.183,re_r_order
34,4,r,65,paul,83,0,2.944,1.629,0.4,2.679,re_r_order
34,5,r,90,keith,90,1,3.055,1.525,0.45,2.175,re_r_order
34,6,r,60,joseph,169,0,2.301,1.748,0.45,2.141,re_r_order
34,7,r,55,tom,161,0,2.43,1.549,0.45,1.992,re_r_order
34,8,r,85,kyle,23,1,2.646,1.575,0.45,1.749,re_r_order
34,9,r,90,connor,153,1,2.791,1.314,0.35,2.008,re_r_order
34,10,r,55,logan,144,0,3.07,1.395,0.4,1.985,re_r_order
34,11,r,95,ethan,20,1,2.751,1.552,0.4,1.885,re_r_order
34,12,r,75,michae,135,1,2.046,1.645,0.05,2.288,re_r_order
34,13,r,80,cory,47,1,2.361,1.372,0.35,2.087,re_r_order
34,14,r,70,tyler,81,1,2.449,1.417,0.4,1.403,re_r_order
34,15,r,85,tony,27,1,2.204,1.609,0.4,1.73,re_r_order
34,16,r,50,nathan,160,0,3.519,1.609,0.3,1.802,re_r_order
34,17,r,50,anthony,63,0,2.318,1.439,0.4,1.456,re_r_order
34,18,r,75,joshua,62,1,1.997,1.399,0,3.478,re_r_order
34,19,r,60,mark,116,0,2.368,1.395,0.25,2.416,re_r_order
34,20,r,70,edward,54,1,1.881,1.237,0.4,2.608,re_r_order
35,1,r,70,edward,54,0,2.499,3.669,0.4,3.701,re_r_order
35,2,r,60,mark,116,0,1.738,1.093,0.15,2.576,re_r_order
35,3,r,90,keith,90,0,2.538,0.914,0.25,2.065,re_r_order
35,4,r,95,ethan,20,0,1.914,1.304,0.15,2.148,re_r_order
35,5,r,75,joshua,62,0,1.5,1.1,0.35,2.019,re_r_order
35,6,r,65,patric,145,0,1.705,0.937,0.3,1.538,re_r_order
35,7,r,55,logan,144,0,1.827,0.819,0.2,4.002,re_r_order
35,8,r,90,connor,153,0,2.304,0.934,0.1,2.37,re_r_order
35,9,r,50,nathan,160,0,1.812,0.796,0.2,4.079,re_r_order
35,10,r,65,paul,83,0,1.501,0.855,0.2,1.963,re_r_order
35,11,r,80,blake,22,0,1.372,1.224,0.1,3.212,re_r_order
35,12,r,85,kyle,23,0,2.359,0.815,0.3,3.233,re_r_order
35,13,r,95,scott,152,0,1.48,0.854,0.25,1.9,re_r_order
35,14,r,50,anthony,63,0,2.028,0.9,0.35,2.512,re_r_order
35,15,r,75,michae,135,0,1.52,0.994,0.45,2.935,re_r_order
35,16,r,70,tyler,81,0,1.347,1.136,0.25,2.13,re_r_order
35,17,r,55,tom,161,0,1.729,0.969,0.15,2.033,re_r_order
35,18,r,85,tony,27,0,1.661,0.742,0.35,2.487,re_r_order
35,19,r,80,cory,47,0,1.679,0.945,0.2,2.712,re_r_order
35,20,r,60,joseph,169,0,2.177,0.986,0.15,2.524,re_r_order
36,1,r,90,keith,90,0,3.503,2.677,0.25,6.226,r_re_order
36,2,r,65,patric,145,0,3.522,1.88,0.2,5.176,r_re_order
36,3,r,65,paul,83,0,3.36,1.746,0.3,2.812,r_re_order
36,4,r,55,tom,161,0,3.308,2.622,0.5,5.216,r_re_order
36,5,r,70,edward,54,0,2.164,1.56,0.4,3.695,r_re_order
36,6,r,70,tyler,81,0,2.654,1.164,0.25,4.003,r_re_order
36,7,r,50,anthony,63,0,3.367,1.273,0.5,3.987,r_re_order
36,8,r,85,kyle,23,0,2.754,1.4,0.1,3.443,r_re_order
36,9,r,90,connor,153,0,2.351,1.467,0.2,3.025,r_re_order
36,10,r,75,joshua,62,0,2.385,1.324,0.4,4.161,r_re_order
36,11,r,50,nathan,160,0,2.174,1.492,0.4,2.538,r_re_order
36,12,r,80,blake,22,0,3.157,1.408,0.05,5.945,r_re_order
36,13,r,95,scott,152,0,2.572,1.704,0.35,3.465,r_re_order
36,14,r,55,logan,144,0,2.132,3.01,0.05,3.434,r_re_order
36,15,r,95,ethan,20,0,2.152,1.564,0.5,6.753,r_re_order
36,16,r,75,michae,135,0,2.677,1.074,0.2,3.546,r_re_order
36,17,r,60,mark,116,0,2.621,2.166,0.5,2.95,r_re_order
36,18,r,60,joseph,169,0,2.101,1.149,0.45,2.625,r_re_order
36,19,r,85,tony,27,0,2.8,1.15,0.25,2.966,r_re_order
36,20,r,80,cory,47,0,1.999,1.644,0.1,3.078,r_re_order
37,1,r,75,joshua,62,0,1.766,1,0.1,15.041,re_r_order
37,2,r,80,blake,22,1,3.642,2.537,0.15,2.292,re_r_order
37,3,r,85,kyle,23,1,1.49,0.958,0.2,1.723,re_r_order
37,4,r,90,keith,90,1,1.362,1.06,0.1,1.967,re_r_order
37,5,r,85,tony,27,1,1.997,1.136,0.1,1.716,re_r_order
37,6,r,65,patric,145,0,1.829,1.154,0.15,2.085,re_r_order
37,7,r,75,michae,135,0,1.518,1.079,0.05,2.206,re_r_order
37,8,r,55,tom,161,0,1.586,1.158,0.2,1.708,re_r_order
37,9,r,60,mark,116,0,1.402,0.97,0.2,1.868,re_r_order
37,10,r,80,cory,47,1,1.779,1.036,0.15,1.83,re_r_order
37,11,r,90,connor,153,1,1.771,1.213,0.05,17.927,re_r_order
37,12,r,95,ethan,20,1,2.735,1.164,0.05,1.558,re_r_order
37,13,r,60,joseph,169,0,1.406,1.023,0.15,1.673,re_r_order
37,14,r,65,paul,83,0,1.775,0.949,0.1,11.305,re_r_order
37,15,r,50,anthony,63,0,1.38,0.869,0.15,9.393,re_r_order
37,16,r,55,logan,144,0,1.608,1.195,0.2,1.953,re_r_order
37,17,r,70,tyler,81,1,1.782,0.888,0.2,1.822,re_r_order
37,18,r,95,scott,152,1,2.06,0.894,0.3,2.374,re_r_order
37,19,r,70,edward,54,1,1.35,1.288,0.25,1.851,re_r_order
37,20,r,50,nathan,160,0,1.654,0.973,0.3,1.808,re_r_order
38,1,r,60,joseph,169,0,3.196,4.126,0,11.1,r_re_order
38,2,r,80,blake,22,1,5.909,1.923,0,2.782,r_re_order
38,3,r,55,tom,161,0,1.811,1.869,0,2.697,r_re_order
38,4,r,75,michae,135,1,2.043,2.184,0,2.641,r_re_order
38,5,r,90,connor,153,1,2.488,1.694,0,3.885,r_re_order
38,6,r,90,keith,90,1,3.767,1.445,0,4.629,r_re_order
38,7,r,85,kyle,23,1,1.672,1.56,0,7.906,r_re_order
38,8,r,70,tyler,81,0,3.477,1.234,0,2.304,r_re_order
38,9,r,95,ethan,20,1,1.923,1.663,0,4.16,r_re_order
38,10,r,85,tony,27,1,2.354,1.332,0,2.342,r_re_order
38,11,r,55,logan,144,0,1.82,1.649,0,2.243,r_re_order
38,12,r,50,nathan,160,0,1.793,1.359,0,4.371,r_re_order
38,13,r,70,edward,54,0,1.768,1.211,0,2.356,r_re_order
38,14,r,65,patric,145,0,3.177,1.15,0,2.365,r_re_order
38,15,r,65,paul,83,0,2.249,1.271,0,2.077,r_re_order
38,16,r,75,joshua,62,1,1.449,1.222,0,1.882,r_re_order
38,17,r,50,anthony,63,0,3.562,1.137,0,3.4,r_re_order
38,18,r,95,scott,152,1,1.484,2.284,0,3.059,r_re_order
38,19,r,80,cory,47,1,2.832,1.562,0,3.755,r_re_order
38,20,r,60,mark,116,0,1.49,1.207,0,2.546,r_re_order
39,1,r,90,keith,90,0,2.404,1.662,0.35,9.98,re_r_order
39,2,r,85,kyle,23,0,2.638,1.505,0.4,3.767,re_r_order
39,3,r,75,michae,135,0,2.156,1.22,0.25,3.422,re_r_order
39,4,r,90,connor,153,0,2.261,1.55,0.35,2.295,re_r_order
39,5,r,95,ethan,20,0,1.74,1.461,0.15,3.065,re_r_order
39,6,r,80,blake,22,0,2.258,1.433,0.4,2.409,re_r_order
39,7,r,65,patric,145,0,2.208,1.052,0.4,3.944,re_r_order
39,8,r,60,mark,116,0,2.472,1.628,0.2,2.971,re_r_order
39,9,r,95,scott,152,0,1.381,1.55,0.35,5.221,re_r_order
39,10,r,50,nathan,160,0,1.849,1.352,0.3,2.545,re_r_order
39,11,r,55,logan,144,0,2.149,1.555,0.4,2.144,re_r_order
39,12,r,50,anthony,63,0,2.314,0.8,0.2,2.19,re_r_order
39,13,r,85,tony,27,0,2.434,1.493,0.4,2.405,re_r_order
39,14,r,60,joseph,169,0,2.456,1.33,0.35,2.259,re_r_order
39,15,r,75,joshua,62,0,1.898,1.276,0.35,2.66,re_r_order
39,16,r,65,paul,83,0,2.826,1.169,0.3,2.292,re_r_order
39,17,r,70,tyler,81,0,1.784,1.002,0.15,5.729,re_r_order
39,18,r,55,tom,161,0,1.726,1.371,0.4,1.479,re_r_order
39,19,r,80,cory,47,0,2.273,1.082,0.5,1.481,re_r_order
39,20,r,70,edward,54,0,1.612,1.282,0.1,2.539,re_r_order
40,1,r,60,joseph,169,0,7.651,3.421,0.5,7.499,r_re_order
40,2,r,95,scott,152,1,3.628,3.006,0.25,7.126,r_re_order
40,3,r,95,ethan,20,1,4.278,2.52,0.4,6.269,r_re_order
40,4,r,60,mark,116,0,30.974,5.037,0.2,6.338,r_re_order
40,5,r,55,logan,144,0,3.696,2.711,0.1,4.549,r_re_order
40,6,r,70,edward,54,0,6.419,2.227,0.5,3.383,r_re_order
40,7,r,55,tom,161,0,3.127,2.165,0.45,3.627,r_re_order
40,8,r,85,tony,27,1,4.015,1.969,0.3,3.6,r_re_order
40,9,r,65,paul,83,0,3.268,3.911,0.25,3.437,r_re_order
40,10,r,50,nathan,160,0,3.021,1.515,0.4,5.067,r_re_order
40,11,r,70,tyler,81,0,3.007,1.952,0.35,4.699,r_re_order
40,12,r,75,michae,135,1,4.149,1.93,0.35,3.766,r_re_order
40,13,r,80,blake,22,1,3.554,1.579,0.15,4.372,r_re_order
40,14,r,90,keith,90,1,3.039,1.378,0.35,3.206,r_re_order
40,15,r,75,joshua,62,1,2.538,2.074,0.4,4.136,r_re_order
40,16,r,50,anthony,63,0,3.42,1.954,0.4,4.22,r_re_order
40,17,r,85,kyle,23,1,3.716,3.079,0.35,3.342,r_re_order
40,18,r,65,patric,145,0,3.06,1.736,0.2,3.065,r_re_order
40,19,r,80,cory,47,1,3.352,1.53,0.35,4.574,r_re_order
40,20,r,90,connor,153,1,4.251,1.776,0.45,4.528,r_re_order
41,1,r,60,joseph,169,0,2.449,2.975,0.2,8.97,r_re_order
41,2,r,70,tyler,81,1,8.258,2.453,0.15,4.801,r_re_order
41,3,r,60,mark,116,0,4.982,1.412,0.25,32.851,r_re_order
41,4,r,55,logan,144,0,2.808,1.636,0.2,4.582,r_re_order
41,5,r,85,kyle,23,1,2.551,3.69,0.3,5.366,r_re_order
41,6,r,65,patric,145,0,1.877,1.634,0.25,4.439,r_re_order
41,7,r,90,connor,153,1,1.85,1.564,0.15,4.268,r_re_order
41,8,r,90,keith,90,1,2.426,2.169,0.4,3.631,r_re_order
41,9,r,80,cory,47,1,5.279,1.618,0.25,3.247,r_re_order
41,10,r,95,scott,152,1,2.405,1.565,0.1,4.635,r_re_order
41,11,r,75,michae,135,0,3.105,1.815,0.35,2.639,r_re_order
41,12,r,75,joshua,62,0,3.462,1.67,0.3,3.112,r_re_order
41,13,r,55,tom,161,0,2.791,1.835,0.15,1.888,r_re_order
41,14,r,50,anthony,63,0,4.241,1.342,0.25,3.787,r_re_order
41,15,r,70,edward,54,0,2.386,1.354,0.3,3.276,r_re_order
41,16,r,85,tony,27,1,3.964,1.457,0.15,3.25,r_re_order
41,17,r,50,nathan,160,0,3.064,1.476,0.35,2.898,r_re_order
41,18,r,65,paul,83,0,2.407,1.356,0.4,2.296,r_re_order
41,19,r,95,ethan,20,1,4.723,1.248,0.15,4.336,r_re_order
41,20,r,80,blake,22,1,3.526,2.107,0.2,4.413,r_re_order
42,1,r,70,edward,54,0,2.077,1.283,0.25,20.414,re_r_order
42,2,r,50,anthony,63,0,2.103,1.114,0.25,2.538,re_r_order
42,3,r,55,logan,144,0,1.72,2.038,0.25,2.536,re_r_order
42,4,r,50,nathan,160,0,3.594,2.228,0.25,2.069,re_r_order
42,5,r,75,joshua,62,0,2.629,1.535,0.25,1.971,re_r_order
42,6,r,80,blake,22,0,1.807,1.267,0.25,1.56,re_r_order
42,7,r,85,kyle,23,0,2.383,1.213,0.25,1.725,re_r_order
42,8,r,80,cory,47,0,1.683,1.001,0.25,1.975,re_r_order
42,9,r,70,tyler,81,0,2.872,1.18,0.25,1.896,re_r_order
42,10,r,60,joseph,169,0,2.525,1.064,0.25,3.566,re_r_order
42,11,r,55,tom,161,0,2.24,1.103,0.25,2.209,re_r_order
42,12,r,65,patric,145,0,1.473,1.111,0.25,2.283,re_r_order
42,13,r,65,paul,83,0,1.504,1.46,0.25,3.252,re_r_order
42,14,r,90,connor,153,0,1.417,1.173,0.25,1.936,re_r_order
42,15,r,90,keith,90,0,2.173,1.168,0.25,2.301,re_r_order
42,16,r,95,scott,152,1,3.137,2.153,0.25,1.752,re_r_order
42,17,r,75,michae,135,0,3.739,1.525,0.25,1.952,re_r_order
42,18,r,60,mark,116,0,3.155,1.341,0.25,3.23,re_r_order
42,19,r,95,ethan,20,1,6.201,1.973,0.25,3.111,re_r_order
42,20,r,85,tony,27,1,3.467,1.229,0.25,2.371,re_r_order
43,1,r,80,cory,47,1,5.423,4.759,0.2,9.298,r_re_order
43,2,r,65,paul,83,0,3.508,2.62,0.05,4.335,r_re_order
43,3,r,75,joshua,62,0,4.339,1.995,0.3,4.956,r_re_order
43,4,r,55,tom,161,0,3.499,1.936,0.25,4.86,r_re_order
43,5,r,50,nathan,160,0,3.086,1.842,0.4,4.297,r_re_order
43,6,r,85,kyle,23,1,2.764,1.716,0.05,3.608,r_re_order
43,7,r,65,patric,145,0,3.71,1.411,0.1,4.508,r_re_order
43,8,r,60,mark,116,0,2.48,1.899,0.25,3.656,r_re_order
43,9,r,95,scott,152,1,2.422,1.631,0.05,3.11,r_re_order
43,10,r,90,connor,153,1,2.547,1.587,0.05,3.104,r_re_order
43,11,r,70,tyler,81,0,3.256,2.034,0.5,3.451,r_re_order
43,12,r,55,logan,144,0,2.747,1.52,0.05,2.825,r_re_order
43,13,r,50,anthony,63,0,2.906,1.513,0.3,3.294,r_re_order
43,14,r,60,joseph,169,0,2.827,1.468,0.1,4.138,r_re_order
43,15,r,75,michae,135,0,2.452,1.549,0.4,3.366,r_re_order
43,16,r,80,blake,22,1,2.773,1.427,0.35,2.857,r_re_order
43,17,r,85,tony,27,1,2.671,1.914,0.4,2.987,r_re_order
43,18,r,70,edward,54,0,2.166,1.783,0.3,3.818,r_re_order
43,19,r,95,ethan,20,1,2.81,1.437,0.2,3.239,r_re_order
43,20,r,90,keith,90,1,2.611,1.541,0.25,2.404,r_re_order
44,1,r,50,anthony,63,0,3.403,2.99,0.3,5.764,r_re_order
44,2,r,85,kyle,23,0,3.477,2,0.2,4.6,r_re_order
44,3,r,75,michae,135,0,2.092,1.982,0.2,4.228,r_re_order
44,4,r,60,mark,116,0,2.579,1.896,0.15,3.359,r_re_order
44,5,r,80,blake,22,1,2.662,2.007,0.1,3.566,r_re_order
44,6,r,90,connor,153,1,4.365,1.792,0.15,3.812,r_re_order
44,7,r,85,tony,27,1,2.988,2.05,0.05,3.096,r_re_order
44,8,r,95,scott,152,1,1.996,1.586,0.2,3.663,r_re_order
44,9,r,70,edward,54,0,2.896,1.719,0.25,4.259,r_re_order
44,10,r,55,logan,144,0,2.212,2.205,0.1,3.125,r_re_order
44,11,r,55,tom,161,0,2.355,1.489,0.3,3.985,r_re_order
44,12,r,95,ethan,20,1,2.684,1.973,0.15,2.385,r_re_order
44,13,r,60,joseph,169,0,2.19,1.56,0.2,2.946,r_re_order
44,14,r,80,cory,47,0,2.076,1.369,0.2,3.665,r_re_order
44,15,r,65,patric,145,0,2.172,1.889,0.1,2.423,r_re_order
44,16,r,90,keith,90,1,2.507,1.923,0.05,2.914,r_re_order
44,17,r,50,nathan,160,0,2.499,1.444,0.3,3.18,r_re_order
44,18,r,65,paul,83,0,2.341,1.26,0.3,2.674,r_re_order
44,19,r,70,tyler,81,0,2.023,1.918,0.35,3.118,r_re_order
44,20,r,75,joshua,62,0,1.785,1.482,0.15,2.787,r_re_order
45,1,r,75,joshua,62,0,8.613,6.045,0.35,6.766,r_re_order
45,2,r,60,joseph,169,0,1.561,1.397,0.35,24.558,r_re_order
45,3,r,80,cory,47,1,3.434,1.441,0.4,4.945,r_re_order
45,4,r,95,scott,152,1,3.891,1.576,0.35,5.691,r_re_order
45,5,r,65,patric,145,0,2.071,1.168,0.4,6.876,r_re_order
45,6,r,70,edward,54,0,1.291,1.074,0.4,3.107,r_re_order
45,7,r,75,michae,135,0,1.431,0.983,0.4,2.523,r_re_order
45,8,r,90,connor,153,1,2.542,1.054,0.4,1.7,r_re_order
45,9,r,95,ethan,20,1,4.047,1.293,0.35,3.397,r_re_order
45,10,r,85,tony,27,1,1.978,1.081,0.4,2.834,r_re_order
45,11,r,60,mark,116,0,1.342,0.878,0.35,2.416,r_re_order
45,12,r,70,tyler,81,0,1.795,1.158,0.35,2.031,r_re_order
45,13,r,80,blake,22,0,1.369,1.68,0.4,1.889,r_re_order
45,14,r,90,keith,90,1,2.167,1.954,0.35,4.816,r_re_order
45,15,r,55,tom,161,0,1.68,1.144,0.35,21.075,r_re_order
45,16,r,50,nathan,160,0,2.025,1.835,0.4,1.639,r_re_order
45,17,r,85,kyle,23,1,1.312,1.279,0.35,2.449,r_re_order
45,18,r,65,paul,83,0,1.23,0.902,0.35,1.486,r_re_order
45,19,r,55,logan,144,0,1.453,1.328,0.35,1.773,r_re_order
45,20,r,50,anthony,63,0,1.551,0.798,0.4,2.238,r_re_order
46,1,r,65,paul,83,0,2.894,2.484,0.1,9.647,r_re_order
46,2,r,80,blake,22,0,5.679,1.555,0.05,3.954,r_re_order
46,3,r,75,joshua,62,0,3.324,1.535,0.2,3.7,r_re_order
46,4,r,95,ethan,20,0,6.078,1.439,0.1,2.436,r_re_order
46,5,r,60,mark,116,0,2.387,1.241,0.35,2.5,r_re_order
46,6,r,50,anthony,63,0,1.979,1.348,0.4,4.1,r_re_order
46,7,r,70,edward,54,0,1.871,1.22,0.1,2.244,r_re_order
46,8,r,95,scott,152,0,3.099,1.197,0.35,2.399,r_re_order
46,9,r,80,cory,47,0,1.944,1.119,0.05,2.673,r_re_order
46,10,r,65,patric,145,0,1.7,1.022,0.1,2.434,r_re_order
46,11,r,55,logan,144,0,3.133,0.959,0.1,2.653,r_re_order
46,12,r,90,connor,153,0,2.252,1.997,0.05,2.182,r_re_order
46,13,r,85,tony,27,0,1.992,1.03,0.1,2.666,r_re_order
46,14,r,55,tom,161,0,1.999,1,0.05,3.449,r_re_order
46,15,r,70,tyler,81,0,1.8,0.958,0.25,2.252,r_re_order
46,16,r,90,keith,90,0,2.016,0.991,0.3,1.996,r_re_order
46,17,r,60,joseph,169,0,2.14,1,0.25,1.664,r_re_order
46,18,r,75,michae,135,0,1.866,1.084,0.35,2.859,r_re_order
46,19,r,85,kyle,23,0,1.7,0.942,0.25,1.6,r_re_order
46,20,r,50,nathan,160,0,2.166,2.154,0.25,2.001,r_re_order
47,1,r,65,patric,145,0,2.927,2.228,0.5,14.29,r_re_order
47,2,r,65,paul,83,0,2.848,1.787,0.4,3.2,r_re_order
47,3,r,55,logan,144,0,2.325,1.833,0.3,3.136,r_re_order
47,4,r,95,ethan,20,1,3.177,12.397,0.15,8.025,r_re_order
47,5,r,90,connor,153,0,2.035,1.616,0.35,4.026,r_re_order
47,6,r,75,joshua,62,0,2.486,1.685,0.2,3.474,r_re_order
47,7,r,80,blake,22,0,2.914,1.429,0.35,2.999,r_re_order
47,8,r,50,anthony,63,0,2.669,1.361,0.3,3.064,r_re_order
47,9,r,70,edward,54,0,2.414,1.712,0.35,4.111,r_re_order
47,10,r,70,tyler,81,0,2.128,1.407,0.35,4.933,r_re_order
47,11,r,80,cory,47,0,2.17,1.415,0.3,3.308,r_re_order
47,12,r,85,kyle,23,1,2.988,1.469,0.2,3.129,r_re_order
47,13,r,90,keith,90,1,3.04,1.07,0.2,4.743,r_re_order
47,14,r,75,michae,135,0,2.353,1.253,0.3,4.705,r_re_order
47,15,r,60,joseph,169,0,1.865,2.155,0.4,2.666,r_re_order
47,16,r,85,tony,27,1,3.949,1.362,0.2,3.399,r_re_order
47,17,r,50,nathan,160,0,2.327,1.319,0.25,4.109,r_re_order
47,18,r,60,mark,116,0,2.267,1.626,0.35,4.372,r_re_order
47,19,r,55,tom,161,0,2.085,1.12,0.35,2.203,r_re_order
47,20,r,95,scott,152,0,2.018,1.522,0.2,3.185,r_re_order
48,1,r,55,tom,161,0,4.23,3.47,0.1,9.532,re_r_order
48,2,r,75,joshua,62,0,2.622,2.084,0.15,4.565,re_r_order
48,3,r,60,joseph,169,0,2.679,2.113,0.1,3.89,re_r_order
48,4,r,85,kyle,23,0,2.141,1.381,0.25,7.15,re_r_order
48,5,r,80,blake,22,0,3.075,2.141,0.1,6.329,re_r_order
48,6,r,80,cory,47,0,2.721,1.819,0.1,7.325,re_r_order
48,7,r,70,edward,54,0,2.431,1.809,0.2,5.009,re_r_order
48,8,r,90,keith,90,1,4.294,1.694,0.15,3.793,re_r_order
48,9,r,60,mark,116,0,2.397,2.209,0.2,3.916,re_r_order
48,10,r,90,connor,153,1,2.829,1.606,0.1,4.432,re_r_order
48,11,r,50,anthony,63,0,2.031,1.821,0.25,3.812,re_r_order
48,12,r,70,tyler,81,0,2.316,1.905,0.2,3.998,re_r_order
48,13,r,75,michae,135,0,2.205,1.476,0.25,6.291,re_r_order
48,14,r,50,nathan,160,0,2.105,1.745,0.3,3.491,re_r_order
48,15,r,95,scott,152,1,2.63,1.518,0.05,4.573,re_r_order
48,16,r,65,patric,145,0,2.59,1.611,0.25,3.858,re_r_order
48,17,r,95,ethan,20,1,2.718,1.829,0.25,4.273,re_r_order
48,18,r,65,paul,83,0,2.221,1.701,0.2,5.156,re_r_order
48,19,r,55,logan,144,0,2.102,1.63,0.05,11.652,re_r_order
48,20,r,85,tony,27,0,2.601,1.529,0.2,4.47,re_r_order
49,1,r,85,kyle,23,0,5.236,2.875,0.15,3.681,re_r_order
49,2,r,70,tyler,81,0,3.726,2.338,0.15,3.775,re_r_order
49,3,r,85,tony,27,0,3.472,2.231,0.15,2.767,re_r_order
49,4,r,65,patric,145,0,2.631,1.802,0.15,3.627,re_r_order
49,5,r,90,keith,90,0,3.323,2.331,0.15,2.992,re_r_order
49,6,r,50,nathan,160,0,3.958,2.406,0.15,3.796,re_r_order
49,7,r,60,mark,116,0,3.241,1.934,0.15,3.767,re_r_order
49,8,r,70,edward,54,0,3.134,1.739,0.15,3.498,re_r_order
49,9,r,60,joseph,169,0,3.332,1.666,0.15,3.36,re_r_order
49,10,r,80,blake,22,0,3.352,1.842,0.15,3.489,re_r_order
49,11,r,90,connor,153,0,3.115,1.939,0.15,3.386,re_r_order
49,12,r,65,paul,83,0,3.618,2.44,0.15,3.677,re_r_order
49,13,r,80,cory,47,0,3.909,2.535,0.15,3.829,re_r_order
49,14,r,95,scott,152,0,3.513,1.85,0.15,4.682,re_r_order
49,15,r,75,joshua,62,0,3.366,1.941,0.3,3.078,re_r_order
49,16,r,50,anthony,63,0,3.572,1.884,0.2,5.069,re_r_order
49,17,r,75,michae,135,0,3.143,2.003,0.1,4.228,re_r_order
49,18,r,55,tom,161,0,3.504,2.028,0.1,54.388,re_r_order
49,19,r,55,logan,144,0,3.329,2.143,0.1,3.061,re_r_order
49,20,r,95,ethan,20,0,3.116,1.505,0.05,27.063,re_r_order
50,1,r,75,michae,135,0,3.268,2.72,0.15,9.771,r_re_order
50,2,r,85,tony,27,0,3.029,1.859,0.2,6.84,r_re_order
50,3,r,50,anthony,63,0,1.861,1.263,0.4,5.969,r_re_order
50,4,r,70,edward,54,0,1.741,1.237,0.1,4.995,r_re_order
50,5,r,90,connor,153,0,2.225,1.699,0.2,4.539,r_re_order
50,6,r,60,joseph,169,0,2.336,1.461,0.3,4.425,r_re_order
50,7,r,70,tyler,81,0,3.91,1.137,0.15,4.244,r_re_order
50,8,r,95,scott,152,0,2.818,1.453,0.25,4.43,r_re_order
50,9,r,60,mark,116,0,1.668,1.236,0.25,5.699,r_re_order
50,10,r,75,joshua,62,0,1.83,1.196,0.4,5.447,r_re_order
50,11,r,55,logan,144,0,1.637,1.154,0.05,5.23,r_re_order
50,12,r,85,kyle,23,0,1.774,1.69,0.1,3.79,r_re_order
50,13,r,55,tom,161,0,1.833,1.675,0.35,7.996,r_re_order
50,14,r,65,paul,83,0,2.425,1.344,0.2,5.107,r_re_order
50,15,r,65,patric,145,0,1.866,1.168,0.15,3.332,r_re_order
50,16,r,95,ethan,20,0,2.108,1.373,0.5,4.513,r_re_order
50,17,r,80,blake,22,0,1.791,1.083,0.15,4.598,r_re_order
50,18,r,80,cory,47,0,1.649,1.067,0.3,3.717,r_re_order
50,19,r,50,nathan,160,0,1.752,1.033,0.45,3.02,r_re_order
50,20,r,90,keith,90,0,2.484,1.601,0.1,2.576,r_re_order
51,1,r,65,patric,145,0,4.635,3.615,0.3,4.813,re_r_order
51,2,r,70,tyler,81,0,1.983,0.787,0.3,1.585,re_r_order
51,3,r,85,tony,27,1,1.919,0.913,0.1,2.097,re_r_order
51,4,r,95,ethan,20,1,2.558,0.971,0.25,39.97,re_r_order
51,5,r,50,nathan,160,0,1.351,0.849,0.3,1.932,re_r_order
51,6,r,90,connor,153,1,1.928,1.464,0.05,4.812,re_r_order
51,7,r,85,kyle,23,1,1.183,0.78,0.25,3.747,re_r_order
51,8,r,75,joshua,62,0,2.122,1.288,0.1,3.952,re_r_order
51,9,r,80,blake,22,0,1.684,0.888,0.15,32.161,re_r_order
51,10,r,60,mark,116,0,1.616,0.76,0.25,1.509,re_r_order
51,11,r,70,edward,54,0,1.631,0.926,0.15,3.846,re_r_order
51,12,r,50,anthony,63,0,25.038,1.113,0.35,9.189,re_r_order
51,13,r,90,keith,90,1,0.902,0.959,0.25,1.801,re_r_order
51,14,r,55,logan,144,0,1.516,1.03,0.4,2.709,re_r_order
51,15,r,65,paul,83,0,1.537,1.046,0.45,2.429,re_r_order
51,16,r,55,tom,161,0,1.847,0.838,0.45,1.846,re_r_order
51,17,r,75,michae,135,0,2.232,1.233,0.45,1.399,re_r_order
51,18,r,80,cory,47,0,1.28,0.852,0.35,1.532,re_r_order
51,19,r,60,joseph,169,0,1.703,0.738,0.35,1.534,re_r_order
51,20,r,95,scott,152,1,2.358,1.361,0.5,4.135,re_r_order
52,1,r,90,keith,90,1,4.433,3.286,0.2,6.095,r_re_order
52,2,r,70,tyler,81,1,3.157,3.02,0.5,5.836,r_re_order
52,3,r,75,joshua,62,1,2.421,2.742,0.3,7.005,r_re_order
52,4,r,65,patric,145,0,2.801,4.182,0.1,10.113,r_re_order
52,5,r,80,blake,22,1,2.472,1.829,0.1,7.044,r_re_order
52,6,r,65,paul,83,0,4.001,3.083,0.3,3.243,r_re_order
52,7,r,95,ethan,20,1,2.83,4.075,0.05,4.333,r_re_order
52,8,r,80,cory,47,1,2.62,1.978,0.5,3.293,r_re_order
52,9,r,60,mark,116,0,2.338,1.986,0.3,3.888,r_re_order
52,10,r,55,tom,161,0,2.548,2.28,0.25,4.033,r_re_order
52,11,r,85,tony,27,1,2.454,1.891,0.3,3.872,r_re_order
52,12,r,55,logan,144,0,2.393,1.969,0.5,3.314,r_re_order
52,13,r,50,anthony,63,0,2.503,2.311,0.15,3.245,r_re_order
52,14,r,95,scott,152,1,2.209,1.599,0.25,3.465,r_re_order
52,15,r,50,nathan,160,0,2.033,1.601,0.4,4.216,r_re_order
52,16,r,70,edward,54,1,1.947,2.292,0.2,4.494,r_re_order
52,17,r,90,connor,153,1,4.725,2.67,0.4,3.329,r_re_order
52,18,r,75,michae,135,1,2.232,1.432,0.5,3.13,r_re_order
52,19,r,85,kyle,23,1,1.705,1.158,0.4,3.904,r_re_order
52,20,r,60,joseph,169,0,2.512,2.498,0.4,4.421,r_re_order
53,1,r,60,mark,116,0,2.019,3.389,0.15,6.918,re_r_order
53,2,r,70,tyler,81,0,1.468,2.268,0.3,5.987,re_r_order
53,3,r,95,ethan,20,1,1.942,1.425,0.1,4.269,re_r_order
53,4,r,55,tom,161,0,3.167,29.316,0.4,2.983,re_r_order
53,5,r,75,michae,135,1,2.976,1.601,0.25,5.153,re_r_order
53,6,r,80,blake,22,1,2.744,1.102,0.1,5.449,re_r_order
53,7,r,60,joseph,169,0,1.626,1.165,0.25,3.143,re_r_order
53,8,r,50,nathan,160,0,1.411,1.18,0.35,2.618,re_r_order
53,9,r,65,paul,83,0,2.444,1.229,0.3,15.812,re_r_order
53,10,r,50,anthony,63,0,1.933,1.102,0.25,2.809,re_r_order
53,11,r,85,tony,27,1,1.581,1.254,0.4,2.861,re_r_order
53,12,r,90,keith,90,1,1.474,1.15,0.3,2.976,re_r_order
53,13,r,55,logan,144,0,3.505,2.793,0.2,3.558,re_r_order
53,14,r,95,scott,152,1,2.312,1.142,0.35,3.28,re_r_order
53,15,r,70,edward,54,0,1.888,1.261,0.35,9.015,re_r_order
53,16,r,85,kyle,23,1,1.92,1.103,0.25,3.223,re_r_order
53,17,r,90,connor,153,1,2.406,1.38,0.1,2.735,re_r_order
53,18,r,65,patric,145,0,1.978,1.023,0.35,3.112,re_r_order
53,19,r,75,joshua,62,0,1.638,1.162,0.4,3.928,re_r_order
53,20,r,80,cory,47,1,2.509,0.839,0.2,5.17,re_r_order
54,1,r,85,tony,27,0,5.691,2.301,0.25,7.272,r_re_order
54,2,r,55,logan,144,0,2.349,2,0.2,5.816,r_re_order
54,3,r,95,ethan,20,1,4.61,1.71,0.4,3.4,r_re_order
54,4,r,50,nathan,160,0,2.087,1.392,0.45,5.43,r_re_order
54,5,r,50,anthony,63,0,2.06,1.182,0.45,3.308,r_re_order
54,6,r,65,paul,83,0,2.309,1.743,0.3,4.048,r_re_order
54,7,r,60,joseph,169,0,3.457,1.578,0.35,4.406,r_re_order
54,8,r,85,kyle,23,1,2.655,1.337,0.3,6.301,r_re_order
54,9,r,75,michae,135,1,2.41,1.393,0.35,3.038,r_re_order
54,10,r,80,blake,22,1,2.445,1.464,0.05,3.947,r_re_order
54,11,r,60,mark,116,0,2.093,2.289,0.25,2.86,r_re_order
54,12,r,90,connor,153,1,1.927,1.362,0.05,2.888,r_re_order
54,13,r,90,keith,90,1,3.034,1.359,0.15,3.278,r_re_order
54,14,r,75,joshua,62,1,1.718,1.973,0.4,7.002,r_re_order
54,15,r,70,edward,54,1,2.671,1.452,0.4,3.923,r_re_order
54,16,r,80,cory,47,1,2.438,1.389,0.25,4.132,r_re_order
54,17,r,95,scott,152,1,2.363,1.259,0.05,9.545,r_re_order
54,18,r,55,tom,161,0,2.172,1.291,0.4,3.439,r_re_order
54,19,r,65,patric,145,0,3.256,1.251,0.25,2.951,r_re_order
54,20,r,70,tyler,81,0,2.25,1.397,0.45,2.721,r_re_order
55,1,r,75,michae,135,1,11.261,7.047,0.1,7.266,re_r_order
55,2,r,60,joseph,169,0,1.753,1.556,0.15,7.567,re_r_order
55,3,r,70,edward,54,0,1.762,1.295,0.2,4.115,re_r_order
55,4,r,95,ethan,20,1,1.742,2.437,0.05,2.826,re_r_order
55,5,r,85,tony,27,1,2.278,0.998,0.15,3.168,re_r_order
55,6,r,80,cory,47,1,2.327,1.148,0.2,4.365,re_r_order
55,7,r,70,tyler,81,0,2.053,1.265,0.25,2.899,re_r_order
55,8,r,65,patric,145,0,1.854,0.932,0.15,2.895,re_r_order
55,9,r,55,logan,144,0,1.813,1.275,0.1,3.095,re_r_order
55,10,r,55,tom,161,0,1.419,1.151,0.15,3.369,re_r_order
55,11,r,85,kyle,23,1,1.87,1.331,0.25,4.306,re_r_order
55,12,r,50,anthony,63,0,1.749,1.411,0.05,2.772,re_r_order
55,13,r,50,nathan,160,0,2.047,1.052,0.15,4.417,re_r_order
55,14,r,75,joshua,62,1,1.336,1.076,0.05,2.484,re_r_order
55,15,r,95,scott,152,1,1.386,1.304,0.1,4.34,re_r_order
55,16,r,90,keith,90,1,1.87,0.935,0.2,5.267,re_r_order
55,17,r,90,connor,153,1,1.754,1.348,0.2,3.424,re_r_order
55,18,r,65,paul,83,0,1.89,1.056,0.15,4.324,re_r_order
55,19,r,60,mark,116,0,1.677,0.878,0.2,3.862,re_r_order
55,20,r,80,blake,22,1,1.917,1.051,0.15,4.1,re_r_order
56,1,r,95,scott,152,1,3.07,2.906,0,4.555,re_r_order
56,2,r,90,connor,153,1,2.335,1.929,0.05,2.878,re_r_order
56,3,r,85,tony,27,1,2.627,3.348,0.25,3.663,re_r_order
56,4,r,55,logan,144,0,2.12,2.007,0.35,1.988,re_r_order
56,5,r,95,ethan,20,1,1.946,1.618,0.3,2.724,re_r_order
56,6,r,65,paul,83,0,2.18,1.276,0.3,2.577,re_r_order
56,7,r,75,michae,135,0,2.509,1.356,0.1,2.709,re_r_order
56,8,r,60,mark,116,0,2.58,1.49,0.4,2.174,re_r_order
56,9,r,55,tom,161,0,1.634,1.183,0.4,2.472,re_r_order
56,10,r,90,keith,90,1,1.863,1.512,0.25,2.923,re_r_order
56,11,r,50,nathan,160,0,2.21,1.261,0.5,2.948,re_r_order
56,12,r,75,joshua,62,0,2.291,1.111,0.1,2.65,re_r_order
56,13,r,80,blake,22,0,3.166,1.168,0.05,2.392,re_r_order
56,14,r,85,kyle,23,1,2.024,1.337,0,2.854,re_r_order
56,15,r,65,patric,145,0,2.019,1.24,0.15,2.383,re_r_order
56,16,r,70,edward,54,0,1.495,3.217,0.35,2.335,re_r_order
56,17,r,60,joseph,169,0,1.844,1.327,0.35,2.062,re_r_order
56,18,r,70,tyler,81,0,1.966,1.057,0.4,2.451,re_r_order
56,19,r,80,cory,47,1,1.803,1.068,0.5,2.661,re_r_order
56,20,r,50,anthony,63,0,2.05,1.161,0.05,2.093,re_r_order
57,1,r,95,scott,152,1,4.058,4.143,0.05,3.992,re_r_order
57,2,r,50,anthony,63,0,2.513,2.094,0.2,4.207,re_r_order
57,3,r,60,mark,116,0,2.319,1.568,0.25,3.41,re_r_order
57,4,r,60,joseph,169,0,1.988,1.461,0.15,4.971,re_r_order
57,5,r,85,kyle,23,1,3.027,1.761,0.5,3.692,re_r_order
57,6,r,75,michae,135,1,3.113,1.705,0.2,4.311,re_r_order
57,7,r,65,patric,145,0,3.217,1.591,0.25,3.458,re_r_order
57,8,r,90,keith,90,1,3.141,2.108,0.1,3.115,re_r_order
57,9,r,55,tom,161,0,1.894,1.57,0.15,4.416,re_r_order
57,10,r,85,tony,27,1,2.438,1.487,0.5,4.235,re_r_order
57,11,r,80,blake,22,1,2.1,1.414,0.2,3.725,re_r_order
57,12,r,70,tyler,81,0,2.079,1.743,0.15,4.273,re_r_order
57,13,r,75,joshua,62,1,2.932,1.336,0.1,3.269,re_r_order
57,14,r,65,paul,83,0,2.107,1.455,0.15,2.958,re_r_order
57,15,r,90,connor,153,1,2.181,1.388,0.4,4.525,re_r_order
57,16,r,95,ethan,20,1,2.377,2.382,0.05,4.093,re_r_order
57,17,r,55,logan,144,0,2.582,1.662,0.1,2.939,re_r_order
57,18,r,70,edward,54,0,2.692,1.368,0.3,4.128,re_r_order
57,19,r,80,cory,47,1,2.472,1.556,0.5,4.197,re_r_order
57,20,r,50,nathan,160,0,1.961,1.781,0.5,3.033,re_r_order
58,1,r,80,blake,22,0,1.51,1.361,0.5,7.097,re_r_order
58,2,r,95,scott,152,0,1.725,1.091,0.25,2.141,re_r_order
58,3,r,70,edward,54,0,1.729,0.893,0.35,1.915,re_r_order
58,4,r,70,tyler,81,0,1.977,1.281,0.15,4.644,re_r_order
58,5,r,85,kyle,23,0,1.352,1.099,0.35,1.559,re_r_order
58,6,r,60,mark,116,0,1.513,1.26,0.45,1.361,re_r_order
58,7,r,55,logan,144,0,2.267,1.201,0.45,1.171,re_r_order
58,8,r,95,ethan,20,0,1.477,0.966,0.2,1.352,re_r_order
58,9,r,85,tony,27,0,1.487,1.384,0.2,1.651,re_r_order
58,10,r,75,michae,135,0,1.723,0.857,0.3,1.314,re_r_order
58,11,r,90,keith,90,0,1.608,0.838,0.45,1.693,re_r_order
58,12,r,60,joseph,169,0,1.25,0.949,0.45,1.078,re_r_order
58,13,r,65,patric,145,0,1.63,0.905,0.25,1.217,re_r_order
58,14,r,55,tom,161,0,1.614,0.902,0.15,1.788,re_r_order
58,15,r,75,joshua,62,0,1.472,1.263,0.4,1.42,re_r_order
58,16,r,50,nathan,160,0,1.212,0.852,0.45,1.444,re_r_order
58,17,r,90,connor,153,0,2.156,1.151,0.25,1.688,re_r_order
58,18,r,50,anthony,63,0,1.829,1.141,0.2,2.069,re_r_order
58,19,r,65,paul,83,0,2.354,1.076,0.35,1.329,re_r_order
58,20,r,80,cory,47,0,1.721,1.601,0.35,1.065,re_r_order
59,1,r,65,patric,145,0,5.122,5.237,0.3,24.816,r_re_order
59,2,r,95,ethan,20,1,4.52,2.778,0.25,6.659,r_re_order
59,3,r,90,connor,153,1,3.317,2.332,0.45,4.601,r_re_order
59,4,r,80,blake,22,0,3.519,2.546,0.25,7.995,r_re_order
59,5,r,75,michae,135,0,4.122,2.815,0.25,24.967,r_re_order
59,6,r,55,logan,144,0,4.249,2.066,0.1,3.413,r_re_order
59,7,r,50,nathan,160,0,3.799,3.037,0.15,4.089,r_re_order
59,8,r,90,keith,90,1,4.174,3.581,0.35,3.7,r_re_order
59,9,r,95,scott,152,1,3.102,4.428,0.45,3.539,r_re_order
59,10,r,75,joshua,62,0,3.878,3.85,0.25,13.563,r_re_order
59,11,r,80,cory,47,1,3.725,2.599,0.4,3.28,r_re_order
59,12,r,85,tony,27,0,6.125,4.338,0.45,3.803,r_re_order
59,13,r,65,paul,83,0,2.93,2.431,0.45,8.442,r_re_order
59,14,r,70,edward,54,0,3.459,1.902,0.5,3.148,r_re_order
59,15,r,60,joseph,169,0,7.302,2.102,0.4,2.999,r_re_order
59,16,r,60,mark,116,0,2.759,2.098,0.4,3.117,r_re_order
59,17,r,50,anthony,63,0,3.995,2.223,0.5,2.758,r_re_order
59,18,r,55,tom,161,0,3.316,2.432,0.3,9.133,r_re_order
59,19,r,70,tyler,81,0,2.995,2.044,0.4,2.771,r_re_order
59,20,r,85,kyle,23,1,3.32,6.737,0.35,13.293,r_re_order
60,1,r,50,anthony,63,0,3.452,4.322,0.35,5.804,re_r_order
60,2,r,60,joseph,169,0,1.943,1.669,0.2,3.524,re_r_order
60,3,r,60,mark,116,0,2.49,1.625,0.1,3.349,re_r_order
60,4,r,65,patric,145,0,2.265,2.477,0.35,2.649,re_r_order
60,5,r,75,joshua,62,0,1.635,1.446,0.4,2.752,re_r_order
60,6,r,85,kyle,23,0,2.674,1.255,0.15,2.412,re_r_order
60,7,r,90,keith,90,1,2.526,1.676,0.1,2.914,re_r_order
60,8,r,95,ethan,20,1,2.365,1.733,0.3,2.721,re_r_order
60,9,r,50,nathan,160,0,1.912,1.209,0.2,2.441,re_r_order
60,10,r,55,tom,161,0,2.595,1.252,0.4,2.48,re_r_order
60,11,r,95,scott,152,1,2.794,1.25,0.25,3.171,re_r_order
60,12,r,70,tyler,81,0,2.251,1.356,0.2,2.352,re_r_order
60,13,r,80,cory,47,0,3.631,1.05,0.1,2.646,re_r_order
60,14,r,55,logan,144,0,3.262,2.117,0.25,3.728,re_r_order
60,15,r,70,edward,54,0,1.756,1.878,0.3,15.768,re_r_order
60,16,r,75,michae,135,0,1.97,1.079,0.05,2.073,re_r_order
60,17,r,80,blake,22,0,1.919,1.698,0.5,1.753,re_r_order
60,18,r,65,paul,83,0,2.634,1.305,0.3,2.424,re_r_order
60,19,r,85,tony,27,0,1.776,1.104,0.2,2.18,re_r_order
60,20,r,90,connor,153,1,2.411,1.608,0.05,3.494,re_r_order
61,1,r,75,michae,135,0,3.697,2.562,0.15,8.529,re_r_order
61,2,r,80,blake,22,1,3.145,1.969,0.4,10.03,re_r_order
61,3,r,85,kyle,23,1,2.407,1.6,0.5,3.798,re_r_order
61,4,r,60,mark,116,0,2.176,2.162,0.3,4.886,re_r_order
61,5,r,75,joshua,62,0,1.921,2.133,0.5,3.933,re_r_order
61,6,r,65,patric,145,0,1.926,1.945,0.4,4.331,re_r_order
61,7,r,65,paul,83,0,1.572,1.652,0.4,5.874,re_r_order
61,8,r,95,ethan,20,1,2.428,2.029,0.1,4.519,re_r_order
61,9,r,80,cory,47,1,2.017,1.819,0.45,4.469,re_r_order
61,10,r,90,connor,153,1,2.834,1.707,0.05,5.672,re_r_order
61,11,r,90,keith,90,1,2.036,1.977,0.5,3.483,re_r_order
61,12,r,50,anthony,63,0,2.065,2.097,0.5,3.993,re_r_order
61,13,r,55,logan,144,0,2.692,1.537,0.4,5.696,re_r_order
61,14,r,50,nathan,160,0,2.137,1.485,0.4,5.28,re_r_order
61,15,r,55,tom,161,0,1.898,1.542,0.45,4.051,re_r_order
61,16,r,60,joseph,169,0,2.517,1.247,0.3,4.011,re_r_order
61,17,r,70,tyler,81,0,1.936,1.346,0.45,3.564,re_r_order
61,18,r,95,scott,152,1,4.126,1.6,0.25,4.247,re_r_order
61,19,r,85,tony,27,1,2.662,1.508,0.35,3.614,re_r_order
61,20,r,70,edward,54,0,2.19,1.543,0.45,5.784,re_r_order
62,1,r,90,keith,90,1,3.041,3.957,0.1,2.654,re_r_order
62,2,r,80,blake,22,0,2.728,1.794,0.25,2.238,re_r_order
62,3,r,85,tony,27,0,2.296,1.619,0.25,1.413,re_r_order
62,4,r,55,tom,161,0,2.468,1.99,0.2,2.079,re_r_order
62,5,r,55,logan,144,0,1.942,1.629,0.3,2.375,re_r_order
62,6,r,50,anthony,63,0,2.406,1.681,0.25,1.632,re_r_order
62,7,r,60,mark,116,0,1.872,1.205,0.3,1.736,re_r_order
62,8,r,95,scott,152,1,2.109,1.615,0.3,1.65,re_r_order
62,9,r,85,kyle,23,0,1.922,1.443,0.25,2.212,re_r_order
62,10,r,60,joseph,169,0,3.072,1.433,0.35,2.28,re_r_order
62,11,r,75,michae,135,0,2.184,1.33,0.3,2.242,re_r_order
62,12,r,75,joshua,62,0,1.833,1.257,0.35,3.132,re_r_order
62,13,r,50,nathan,160,0,2.584,1.461,0.4,3.378,re_r_order
62,14,r,70,tyler,81,0,1.936,1.43,0.4,2.208,re_r_order
62,15,r,70,edward,54,0,2.504,1.415,0.35,2.507,re_r_order
62,16,r,90,connor,153,1,2.047,1.332,0.2,2.72,re_r_order
62,17,r,95,ethan,20,1,3.354,1.264,0.4,2.305,re_r_order
62,18,r,65,patric,145,0,1.808,1.428,0.3,1.982,re_r_order
62,19,r,80,cory,47,0,1.772,1.491,0.3,1.927,re_r_order
62,20,r,65,paul,83,0,2.407,1.386,0.4,2.651,re_r_order
63,1,r,80,cory,47,0,2.704,3.581,0.35,9.564,r_re_order
63,2,r,85,tony,27,0,4.186,2.263,0.25,4.959,r_re_order
63,3,r,65,patric,145,0,1.828,2.326,0.25,3.256,r_re_order
63,4,r,75,michae,135,0,1.777,1.744,0.25,3.159,r_re_order
63,5,r,95,ethan,20,1,2.497,1.738,0.25,3.031,r_re_order
63,6,r,90,keith,90,1,4.882,1.524,0.25,3.15,r_re_order
63,7,r,85,kyle,23,0,1.926,1.531,0.25,2.66,r_re_order
63,8,r,55,logan,144,0,2.713,1.946,0.25,3.197,r_re_order
63,9,r,90,connor,153,1,3.222,1.431,0.25,3.219,r_re_order
63,10,r,65,paul,83,0,2.711,1.411,0.25,2.817,r_re_order
63,11,r,50,anthony,63,0,2.269,1.405,0.25,3.584,r_re_order
63,12,r,60,joseph,169,0,2.178,1.42,0.25,2.525,r_re_order
63,13,r,55,tom,161,0,3.094,1.513,0.25,2.73,r_re_order
63,14,r,70,tyler,81,0,2.723,1.687,0.25,3.447,r_re_order
63,15,r,80,blake,22,0,2.277,0.978,0.25,3.795,r_re_order
63,16,r,75,joshua,62,0,2.461,1.472,0.25,2.484,r_re_order
63,17,r,70,edward,54,0,2.265,1.056,0.25,2.394,r_re_order
63,18,r,60,mark,116,0,2.368,1.311,0.25,3.004,r_re_order
63,19,r,50,nathan,160,0,2.559,1.137,0.25,3.253,r_re_order
63,20,r,95,scott,152,1,4.26,1.812,0.25,2.457,r_re_order
64,1,r,85,kyle,23,1,5.94,5.883,0.4,13.161,r_re_order
64,2,r,90,keith,90,0,1.904,4.455,0.1,6.571,r_re_order
64,3,r,85,tony,27,1,2.171,1.042,0.4,3.368,r_re_order
64,4,r,60,mark,116,0,2.766,1.259,0.45,2.887,r_re_order
64,5,r,50,anthony,63,0,1.092,1.787,0.25,2.949,r_re_order
64,6,r,70,tyler,81,0,1.556,0.743,0.4,9.436,r_re_order
64,7,r,55,logan,144,0,1.421,2.503,0.05,1.892,r_re_order
64,8,r,65,patric,145,0,1.156,0.795,0.25,17.73,r_re_order
64,9,r,95,ethan,20,1,2.197,1.805,0.3,2.697,r_re_order
64,10,r,65,paul,83,0,2.333,0.719,0.15,2.757,r_re_order
64,11,r,95,scott,152,1,1.872,0.768,0.1,1.793,r_re_order
64,12,r,70,edward,54,0,1.241,0.826,0.5,2.792,r_re_order
64,13,r,55,tom,161,0,1.397,0.571,0.1,4.095,r_re_order
64,14,r,90,connor,153,1,1.829,0.691,0.15,2.038,r_re_order
64,15,r,80,blake,22,1,2.059,0.477,0.25,2.192,r_re_order
64,16,r,60,joseph,169,0,2.343,0.742,0.3,1.858,r_re_order
64,17,r,75,michae,135,1,1.481,1.799,0.1,2.137,r_re_order
64,18,r,75,joshua,62,1,2.757,0.988,0.3,1.985,r_re_order
64,19,r,80,cory,47,1,1.696,0.882,0.35,2.355,r_re_order
64,20,r,50,nathan,160,0,1.425,0.597,0.4,1.45,r_re_order
65,1,r,85,tony,27,0,4.811,4.893,0.25,6.242,r_re_order
65,2,r,95,ethan,20,0,2.911,2.864,0.25,4.599,r_re_order
65,3,r,60,joseph,169,0,2.726,3.507,0.25,4.566,r_re_order
65,4,r,55,logan,144,0,2.562,2.043,0.25,4.815,r_re_order
65,5,r,95,scott,152,0,3.184,1.764,0.25,3.874,r_re_order
65,6,r,60,mark,116,0,2.508,1.685,0.25,4.092,r_re_order
65,7,r,70,tyler,81,0,3.464,1.6,0.25,4.554,r_re_order
65,8,r,50,anthony,63,0,2.795,1.801,0.3,5.477,r_re_order
65,9,r,75,michae,135,0,3.451,2.286,0.25,4.292,r_re_order
65,10,r,90,connor,153,0,2.837,2.256,0.25,5.368,r_re_order
65,11,r,90,keith,90,0,2.795,1.517,0.25,4.622,r_re_order
65,12,r,65,patric,145,0,2.464,1.989,0.25,3.955,r_re_order
65,13,r,75,joshua,62,0,2.607,1.948,0.25,3.739,r_re_order
65,14,r,80,blake,22,0,3.006,1.62,0.25,4.265,r_re_order
65,15,r,80,cory,47,0,3.424,1.567,0.25,4.061,r_re_order
65,16,r,85,kyle,23,0,2.484,1.617,0.25,4.176,r_re_order
65,17,r,70,edward,54,0,4.292,1.682,0.25,3.931,r_re_order
65,18,r,55,tom,161,0,2.605,1.873,0.25,3.915,r_re_order
65,19,r,50,nathan,160,0,2.691,1.778,0.25,3.673,r_re_order
65,20,r,65,paul,83,0,3.724,1.619,0.25,3.836,r_re_order
66,1,r,70,edward,54,0,2.089,2.085,0.2,4.542,re_r_order
66,2,r,95,ethan,20,1,2.16,1.209,0.25,2.661,re_r_order
66,3,r,60,mark,116,0,1.584,1.332,0.15,3.416,re_r_order
66,4,r,60,joseph,169,0,1.85,1.027,0.35,2.179,re_r_order
66,5,r,90,connor,153,1,2.332,1.064,0.05,6.064,re_r_order
66,6,r,85,kyle,23,1,2.273,0.9,0.3,2.198,re_r_order
66,7,r,50,nathan,160,0,1.404,1.515,0.4,4.118,re_r_order
66,8,r,70,tyler,81,0,1.516,1.376,0.25,2.565,re_r_order
66,9,r,85,tony,27,1,2.259,0.863,0.2,2.357,re_r_order
66,10,r,80,blake,22,0,1.412,1.438,0.25,3.013,re_r_order
66,11,r,95,scott,152,1,2.671,1.149,0.1,2.596,re_r_order
66,12,r,50,anthony,63,0,2.015,1.939,0.25,2.724,re_r_order
66,13,r,65,paul,83,0,1.518,1.45,0.2,2.501,re_r_order
66,14,r,80,cory,47,0,2.113,1.106,0.35,2.124,re_r_order
66,15,r,90,keith,90,1,1.912,1.004,0.25,2.31,re_r_order
66,16,r,75,joshua,62,0,1.783,1.166,0.3,4.264,re_r_order
66,17,r,55,tom,161,0,2.424,6.978,0.25,39.451,re_r_order
66,18,r,75,michae,135,0,2.073,0.909,0.35,13.24,re_r_order
66,19,r,65,patric,145,0,2.855,2.236,0.3,3.046,re_r_order
66,20,r,55,logan,144,0,1.522,0.932,0.2,10.326,re_r_order
67,1,r,65,paul,83,0,5.309,8.1,0.3,26.044,r_re_order
67,2,r,55,tom,161,0,3.94,2.299,0.35,4.862,r_re_order
67,3,r,80,cory,47,0,2.9,1.675,0.3,3.324,r_re_order
67,4,r,75,michae,135,0,1.729,2.035,0.25,3.848,r_re_order
67,5,r,90,connor,153,1,2.891,3.204,0.3,3.676,r_re_order
67,6,r,60,mark,116,0,2.216,1.469,0.25,2.568,r_re_order
67,7,r,70,tyler,81,0,2.437,1.257,0.2,3.615,r_re_order
67,8,r,85,kyle,23,1,2.295,1.422,0.45,2.926,r_re_order
67,9,r,60,joseph,169,0,2.099,1.578,0.35,2.594,r_re_order
67,10,r,55,logan,144,0,2.277,1.38,0.25,1.797,r_re_order
67,11,r,65,patric,145,0,2.43,1.647,0.25,2.096,r_re_order
67,12,r,75,joshua,62,0,2.073,1.14,0.25,2.088,r_re_order
67,13,r,80,blake,22,0,1.932,1.151,0.3,1.965,r_re_order
67,14,r,95,ethan,20,1,1.719,1.36,0.3,2.009,r_re_order
67,15,r,70,edward,54,0,1.52,1.505,0.3,1.923,r_re_order
67,16,r,95,scott,152,1,1.989,1.407,0.4,2.936,r_re_order
67,17,r,50,nathan,160,0,1.934,1.682,0.35,2.067,r_re_order
67,18,r,50,anthony,63,0,1.843,1.366,0.4,1.857,r_re_order
67,19,r,90,keith,90,1,2.748,1.462,0.3,2.605,r_re_order
67,20,r,85,tony,27,1,2.15,2.892,0.35,2.382,r_re_order
68,1,r,65,patric,145,0,7.48,10.051,0.15,10.513,r_re_order
68,2,r,95,scott,152,1,4.062,4.187,0.2,8.527,r_re_order
68,3,r,50,nathan,160,0,4.15,4.625,0.25,5.741,r_re_order
68,4,r,70,tyler,81,0,4.265,3.329,0.2,5.529,r_re_order
68,5,r,90,connor,153,1,4.54,2.423,0.05,4.353,r_re_order
68,6,r,95,ethan,20,1,3.462,2.169,0.25,6.149,r_re_order
68,7,r,80,cory,47,1,7.923,2.125,0.15,6.019,r_re_order
68,8,r,50,anthony,63,0,4.373,2.053,0.3,5.702,r_re_order
68,9,r,75,joshua,62,0,4.563,2.153,0.25,4.02,r_re_order
68,10,r,90,keith,90,1,3.656,2.08,0.15,3.392,r_re_order
68,11,r,80,blake,22,1,3.385,2.255,0.1,6.785,r_re_order
68,12,r,75,michae,135,0,3.501,3.696,0.05,6.254,r_re_order
68,13,r,55,logan,144,0,3.569,2.597,0.1,3.544,r_re_order
68,14,r,85,kyle,23,1,3.723,1.883,0.3,3.394,r_re_order
68,15,r,60,mark,116,0,2.949,3.217,0.35,3.528,r_re_order
68,16,r,55,tom,161,0,3.763,2.057,0.15,3.663,r_re_order
68,17,r,65,paul,83,0,2.955,1.902,0.2,3.856,r_re_order
68,18,r,60,joseph,169,0,3.639,2.002,0.3,3.324,r_re_order
68,19,r,70,edward,54,1,5.212,2.097,0.15,3.059,r_re_order
68,20,r,85,tony,27,1,4.108,1.61,0.1,6.564,r_re_order
69,1,r,90,keith,90,1,5.755,4.825,0.15,24.724,r_re_order
69,2,r,50,anthony,63,0,3.323,2.834,0.25,8.936,r_re_order
69,3,r,65,paul,83,1,4.044,6.809,0.2,9.401,r_re_order
69,4,r,50,nathan,160,0,2.731,2.449,0.25,7.159,r_re_order
69,5,r,85,tony,27,1,4.965,3.003,0.05,5.355,r_re_order
69,6,r,85,kyle,23,1,4.677,2.4,0.15,5.361,r_re_order
69,7,r,55,logan,144,0,5.021,2.448,0.1,5.072,r_re_order
69,8,r,90,connor,153,1,6.377,2.59,0.2,8.121,r_re_order
69,9,r,95,scott,152,1,4.716,2.221,0.2,4.871,r_re_order
69,10,r,70,tyler,81,0,2.909,2.145,0.25,3.83,r_re_order
69,11,r,55,tom,161,0,4.596,2.097,0.25,4.485,r_re_order
69,12,r,95,ethan,20,1,6.395,1.601,0.2,5.85,r_re_order
69,13,r,75,michae,135,0,4.174,1.994,0.25,6.344,r_re_order
69,14,r,60,mark,116,0,2.052,1.992,0.25,4.331,r_re_order
69,15,r,65,patric,145,0,5.056,1.902,0.15,4.959,r_re_order
69,16,r,80,blake,22,1,5.581,1.786,0.05,4.487,r_re_order
69,17,r,70,edward,54,0,3.448,1.899,0.25,4.1,r_re_order
69,18,r,75,joshua,62,0,4.575,1.624,0.25,5.629,r_re_order
69,19,r,60,joseph,169,0,2.417,3.418,0.2,4.661,r_re_order
69,20,r,80,cory,47,1,12.831,1.697,0.2,5.848,r_re_order
70,1,r,95,scott,152,1,4.333,2.533,0.35,231.588,re_r_order
70,2,r,95,ethan,20,1,2.788,3.087,0.4,4.243,re_r_order
70,3,r,55,tom,161,0,2.563,2.095,0.3,4.097,re_r_order
70,4,r,85,tony,27,1,2.382,2.46,0.3,3.373,re_r_order
70,5,r,65,patric,145,1,2.521,1.863,0.25,3.239,re_r_order
70,6,r,90,keith,90,1,2.579,2.447,0.25,4.009,re_r_order
70,7,r,85,kyle,23,1,2.152,1.91,0.25,3.112,re_r_order
70,8,r,80,blake,22,1,1.862,1.867,0.2,6.357,re_r_order
70,9,r,90,connor,153,1,2.352,1.815,0.2,3.232,re_r_order
70,10,r,70,tyler,81,1,2.112,1.746,0.3,4.239,re_r_order
70,11,r,80,cory,47,1,1.955,1.594,0.25,3.61,re_r_order
70,12,r,60,mark,116,0,3.043,2.019,0.25,2.913,re_r_order
70,13,r,55,logan,144,0,2.122,3.42,0.25,3.811,re_r_order
70,14,r,75,michae,135,1,2.924,1.933,0.25,4.688,re_r_order
70,15,r,50,anthony,63,0,2.512,1.924,0.3,2.998,re_r_order
70,16,r,50,nathan,160,0,2.568,1.518,0.4,6.833,re_r_order
70,17,r,60,joseph,169,0,2.381,1.788,0.25,3.641,re_r_order
70,18,r,75,joshua,62,1,2.251,1.822,0.35,2.528,re_r_order
70,19,r,70,edward,54,1,1.621,1.879,0.2,3.864,re_r_order
70,20,r,65,paul,83,1,3.54,2.034,0.2,7.065,re_r_order
71,1,r,95,ethan,20,1,6.273,4.242,0.05,24.83,r_re_order
71,2,r,95,scott,152,1,2.738,3.541,0.25,5.479,r_re_order
71,3,r,50,nathan,160,0,3.556,2.9,0.3,6.9,r_re_order
71,4,r,80,blake,22,1,2.394,3.227,0.1,4.256,r_re_order
71,5,r,90,connor,153,1,1.871,1.676,0.2,4.44,r_re_order
71,6,r,70,edward,54,0,6.621,4.343,0.3,8.175,r_re_order
71,7,r,60,mark,116,0,3.02,1.959,0.25,4.571,r_re_order
71,8,r,85,tony,27,1,3.788,3.593,0.35,4.243,r_re_order
71,9,r,75,joshua,62,0,2.661,4.033,0.2,4.843,r_re_order
71,10,r,65,paul,83,0,2.219,2.251,0.45,8.2,r_re_order
71,11,r,80,cory,47,1,7.4,1.594,0.4,5.22,r_re_order
71,12,r,85,kyle,23,1,2.651,1.391,0.25,2.64,r_re_order
71,13,r,75,michae,135,0,2.788,1.808,0.5,5.724,r_re_order
71,14,r,55,logan,144,0,2.785,1.675,0.2,1.999,r_re_order
71,15,r,60,joseph,169,0,2.632,1.368,0.3,6.373,r_re_order
71,16,r,50,anthony,63,0,2.201,1.663,0.4,2.811,r_re_order
71,17,r,55,tom,161,0,3.873,1.506,0.35,3.4,r_re_order
71,18,r,65,patric,145,0,2.367,1.854,0.3,2.899,r_re_order
71,19,r,90,keith,90,1,2.644,1.231,0.2,2.685,r_re_order
71,20,r,70,tyler,81,0,2.346,1.352,0.2,3.807,r_re_order
72,1,r,95,scott,152,1,13.576,6.193,0.3,6.587,r_re_order
72,2,r,60,joseph,169,0,3.963,4.137,0.3,4.815,r_re_order
72,3,r,85,tony,27,1,3.185,2.072,0.3,3.486,r_re_order
72,4,r,50,anthony,63,0,2.89,1.804,0.3,2.824,r_re_order
72,5,r,75,michae,135,0,2.788,1.956,0.3,3.599,r_re_order
72,6,r,55,tom,161,0,2.611,2.468,0.3,1.869,r_re_order
72,7,r,70,edward,54,0,2.489,2.027,0.3,2.414,r_re_order
72,8,r,90,keith,90,1,3.268,1.851,0.3,2.21,r_re_order
72,9,r,65,patric,145,0,2.644,2.066,0.3,2.894,r_re_order
72,10,r,85,kyle,23,1,2.859,1.702,0.3,1.331,r_re_order
72,11,r,80,blake,22,0,2.636,1.968,0.3,4.294,r_re_order
72,12,r,95,ethan,20,1,2.124,2.347,0.3,2.223,r_re_order
72,13,r,50,nathan,160,0,2.905,1.884,0.3,1.432,r_re_order
72,14,r,75,joshua,62,0,2.984,2.054,0.3,1.695,r_re_order
72,15,r,70,tyler,81,0,2.636,1.976,0.3,2.256,r_re_order
72,16,r,90,connor,153,1,2.599,1.862,0.3,1.228,r_re_order
72,17,r,55,logan,144,0,2.307,1.976,0.3,0.496,r_re_order
72,18,r,80,cory,47,0,2.732,2.395,0.3,1.742,r_re_order
72,19,r,65,paul,83,0,1.782,1.638,0.3,1.424,r_re_order
72,20,r,60,mark,116,0,1.613,1.616,0.3,2.221,r_re_order
73,1,r,70,tyler,81,1,2.761,2.414,0.35,6.005,re_r_order
73,2,r,75,michae,135,1,1.498,1.389,0.25,2.912,re_r_order
73,3,r,70,edward,54,1,1.711,1.362,0.45,3.037,re_r_order
73,4,r,75,joshua,62,1,2.334,1.014,0.5,83.004,re_r_order
73,5,r,55,tom,161,0,1.891,1.761,0.35,2.177,re_r_order
73,6,r,80,cory,47,1,2.28,0.972,0.35,2.337,re_r_order
73,7,r,90,connor,153,1,1.793,1.133,0.25,2.617,re_r_order
73,8,r,65,paul,83,1,2.323,1.044,0.3,4.413,re_r_order
73,9,r,50,nathan,160,0,2.872,1.104,0.4,1.566,re_r_order
73,10,r,90,keith,90,1,1.666,1.053,0.15,3.213,re_r_order
73,11,r,85,kyle,23,1,1.791,1.236,0.25,42.146,re_r_order
73,12,r,85,tony,27,1,1.6,1.002,0.3,2.021,re_r_order
73,13,r,65,patric,145,1,1.556,1.314,0.35,4.761,re_r_order
73,14,r,55,logan,144,0,1.273,0.948,0.4,2.029,re_r_order
73,15,r,95,ethan,20,1,1.884,0.856,0.3,2.707,re_r_order
73,16,r,60,mark,116,0,1.564,1.087,0.2,2.326,re_r_order
73,17,r,50,anthony,63,0,2.15,1.099,0.2,2.42,re_r_order
73,18,r,60,joseph,169,0,1.393,1.26,0.25,11.098,re_r_order
73,19,r,80,blake,22,1,2.059,1.598,0.2,3.811,re_r_order
73,20,r,95,scott,152,1,1.597,1.623,0.25,152.689,re_r_order
74,1,r,65,patric,145,0,4.167,2.174,0.5,4.897,r_re_order
74,2,r,85,tony,27,0,3.862,1.802,0.5,3.703,r_re_order
74,3,r,55,tom,161,0,4.04,2.18,0.5,3.985,r_re_order
74,4,r,50,anthony,63,0,4.142,1.97,0.5,3.483,r_re_order
74,5,r,90,keith,90,0,3.862,1.898,0.5,4.039,r_re_order
74,6,r,95,ethan,20,1,6.9,2.769,0.5,3.237,r_re_order
74,7,r,85,kyle,23,0,3.152,1.532,0.5,3.391,r_re_order
74,8,r,55,logan,144,0,3.62,1.554,0.5,3.377,r_re_order
74,9,r,80,cory,47,0,5.488,1.886,0.5,3.369,r_re_order
74,10,r,90,connor,153,0,3.404,1.679,0.5,3.417,r_re_order
74,11,r,60,joseph,169,0,2.921,2.108,0.5,2.802,r_re_order
74,12,r,50,nathan,160,0,3.579,1.622,0.5,4.013,r_re_order
74,13,r,80,blake,22,0,3.232,1.629,0.5,2.705,r_re_order
74,14,r,75,michae,135,0,3.089,1.471,0.5,3.02,r_re_order
74,15,r,70,tyler,81,0,2.553,1.275,0.5,3.495,r_re_order
74,16,r,75,joshua,62,0,2.895,1.55,0.5,6.773,r_re_order
74,17,r,65,paul,83,0,3.764,1.356,0.5,2.318,r_re_order
74,18,r,95,scott,152,1,3.953,1.61,0.5,2.464,r_re_order
74,19,r,70,edward,54,0,2.448,1.433,0.5,3.108,r_re_order
74,20,r,60,mark,116,0,2.695,1.767,0.5,3.22,r_re_order
75,1,r,70,tyler,81,0,4.238,6.49,0.1,5.004,re_r_order
75,2,r,95,ethan,20,1,2.932,6.035,0.05,3.863,re_r_order
75,3,r,55,logan,144,0,2.088,1.58,0.05,4.091,re_r_order
75,4,r,80,cory,47,1,2.247,1.315,0.15,2.959,re_r_order
75,5,r,65,patric,145,0,1.784,1.178,0.1,3.943,re_r_order
75,6,r,50,nathan,160,0,1.88,1.377,0.1,3.885,re_r_order
75,7,r,85,tony,27,1,2.1,1.343,0.1,5.157,re_r_order
75,8,r,75,joshua,62,1,2.031,1.148,0.15,4.176,re_r_order
75,9,r,80,blake,22,1,1.926,1.215,0.1,2.914,re_r_order
75,10,r,90,keith,90,1,3.927,1.126,0.05,2.901,re_r_order
75,11,r,75,michae,135,0,1.953,1.087,0.15,3.536,re_r_order
75,12,r,95,scott,152,1,2.236,1.277,0.15,3.15,re_r_order
75,13,r,90,connor,153,1,1.842,1.185,0.1,3.703,re_r_order
75,14,r,55,tom,161,0,2.229,1.252,0.15,5.28,re_r_order
75,15,r,65,paul,83,0,2.43,1.053,0.1,3.545,re_r_order
75,16,r,60,joseph,169,0,2.448,0.961,0.1,3.008,re_r_order
75,17,r,60,mark,116,0,2.355,1.733,0.1,2.732,re_r_order
75,18,r,70,edward,54,0,1.824,0.923,0.15,3.894,re_r_order
75,19,r,85,kyle,23,1,2.64,0.979,0.1,3.994,re_r_order
75,20,r,50,anthony,63,0,1.887,1.047,0.2,4.05,re_r_order
76,1,r,85,tony,27,1,8.907,6.48,0.25,9.446,r_re_order
76,2,r,80,cory,47,1,5.038,2.809,0.1,13.307,r_re_order
76,3,r,60,joseph,169,0,2.653,3.409,0.5,8.098,r_re_order
76,4,r,50,nathan,160,0,3.512,3.589,0.5,4.623,r_re_order
76,5,r,60,mark,116,0,3.185,3.181,0.25,7.096,r_re_order
76,6,r,55,tom,161,0,3.64,2.896,0.4,6.487,r_re_order
76,7,r,70,tyler,81,1,8.874,2.723,0.25,6.183,r_re_order
76,8,r,65,paul,83,1,3.221,1.758,0.5,4.304,r_re_order
76,9,r,85,kyle,23,1,3.368,2,0.35,6.266,r_re_order
76,10,r,75,joshua,62,1,2.872,2.743,0.5,5.419,r_re_order
76,11,r,95,ethan,20,1,4.111,2.525,0.5,6.385,r_re_order
76,12,r,70,edward,54,1,2.818,2.271,0.35,5.63,r_re_order
76,13,r,65,patric,145,1,3.144,2.186,0.25,4.38,r_re_order
76,14,r,90,keith,90,1,3.577,5.694,0.1,7.552,r_re_order
76,15,r,90,connor,153,1,2.927,1.938,0.4,5.031,r_re_order
76,16,r,75,michae,135,1,3.728,2.097,0.5,5.519,r_re_order
76,17,r,55,logan,144,0,3.605,2.632,0.1,5.917,r_re_order
76,18,r,80,blake,22,1,4.738,2.248,0.5,4.32,r_re_order
76,19,r,95,scott,152,1,4.047,2.028,0.05,5.922,r_re_order
76,20,r,50,anthony,63,0,3.449,2.323,0.5,5.107,r_re_order
77,1,r,80,cory,47,1,8.652,5.299,0.25,5.434,r_re_order
77,2,r,75,joshua,62,1,5.016,2.136,0.4,7.683,r_re_order
77,3,r,90,connor,153,1,2.762,2.185,0.15,4.101,r_re_order
77,4,r,50,nathan,160,0,2.889,1.895,0.4,4.418,r_re_order
77,5,r,60,mark,116,0,2.73,1.609,0.4,3.63,r_re_order
77,6,r,65,patric,145,1,2.924,1.816,0.15,3.733,r_re_order
77,7,r,90,keith,90,1,3.264,1.624,0.15,3.188,r_re_order
77,8,r,55,tom,161,0,3.973,1.484,0.15,3.87,r_re_order
77,9,r,60,joseph,169,1,2.756,1.553,0.35,2.771,r_re_order
77,10,r,75,michae,135,1,2.825,1.401,0.15,3.481,r_re_order
77,11,r,70,tyler,81,1,2.644,1.891,0.1,2.956,r_re_order
77,12,r,55,logan,144,0,3.042,1.443,0.05,3.122,r_re_order
77,13,r,85,tony,27,1,2.709,1.74,0.15,5.013,r_re_order
77,14,r,80,blake,22,1,3.554,1.849,0.1,3.949,r_re_order
77,15,r,85,kyle,23,1,3.366,1.56,0.2,2.801,r_re_order
77,16,r,70,edward,54,1,2.579,1.491,0.15,2.716,r_re_order
77,17,r,65,paul,83,1,2.902,2.098,0.1,4.421,r_re_order
77,18,r,95,ethan,20,1,2.556,2.377,0.15,3.76,r_re_order
77,19,r,95,scott,152,1,3.031,1.89,0.2,4.412,r_re_order
77,20,r,50,anthony,63,0,2.352,1.408,0.3,3.455,r_re_order
78,1,r,90,connor,153,1,4.247,3.67,0.15,7.692,r_re_order
78,2,r,65,patric,145,0,6.04,3.031,0.25,8.59,r_re_order
78,3,r,80,cory,47,1,3.847,2.969,0.3,19.778,r_re_order
78,4,r,55,tom,161,0,4.457,2.79,0.35,4.962,r_re_order
78,5,r,55,logan,144,0,4.156,2.551,0.1,5.179,r_re_order
78,6,r,85,tony,27,1,4.076,2.431,0.1,4.33,r_re_order
78,7,r,70,edward,54,0,3.58,3.02,0.35,4.509,r_re_order
78,8,r,50,anthony,63,0,4.044,2.509,0.25,15.934,r_re_order
78,9,r,75,michae,135,0,3.687,2.398,0.15,5.112,r_re_order
78,10,r,80,blake,22,1,3.48,2.288,0.45,176.883,r_re_order
78,11,r,85,kyle,23,1,3.85,1.921,0.25,3.562,r_re_order
78,12,r,95,scott,152,1,4.475,2.435,0.05,3.497,r_re_order
78,13,r,70,tyler,81,0,3.932,2.205,0.25,4.348,r_re_order
78,14,r,60,mark,116,0,4.4,2.99,0.25,3.712,r_re_order
78,15,r,65,paul,83,0,4.139,2.272,0.1,3.875,r_re_order
78,16,r,60,joseph,169,0,5.505,2.576,0.15,3.833,r_re_order
78,17,r,50,nathan,160,0,3.319,4.172,0.05,6.039,r_re_order
78,18,r,75,joshua,62,0,5.052,1.903,0.15,3.036,r_re_order
78,19,r,95,ethan,20,1,3.376,1.954,0.05,4.113,r_re_order
78,20,r,90,keith,90,1,3.77,2.976,0.25,5.086,r_re_order
79,1,r,80,blake,22,1,7.687,4.691,0.25,7.679,r_re_order
79,2,r,75,michae,135,1,2.671,2.924,0.4,5.789,r_re_order
79,3,r,95,scott,152,1,2.631,2.253,0.3,4.092,r_re_order
79,4,r,80,cory,47,1,1.954,1.783,0.35,4.615,r_re_order
79,5,r,50,anthony,63,0,3.13,1.637,0.35,5.178,r_re_order
79,6,r,85,kyle,23,1,3.887,1.624,0.25,3.654,r_re_order
79,7,r,60,mark,116,0,2.033,1.615,0.25,4.664,r_re_order
79,8,r,60,joseph,169,0,1.969,1.628,0.25,4.898,r_re_order
79,9,r,75,joshua,62,1,5.013,1.519,0.3,5.027,r_re_order
79,10,r,95,ethan,20,1,1.754,1.697,0.2,8.712,r_re_order
79,11,r,70,edward,54,1,2.486,1.64,0.25,4.543,r_re_order
79,12,r,70,tyler,81,1,2.107,2.217,0.3,5.311,r_re_order
79,13,r,55,tom,161,0,2.256,1.406,0.3,9.954,r_re_order
79,14,r,55,logan,144,0,1.914,1.583,0.15,4.802,r_re_order
79,15,r,65,patric,145,1,3.648,1.615,0.25,3.022,r_re_order
79,16,r,50,nathan,160,0,2.763,1.673,0.3,4.194,r_re_order
79,17,r,90,connor,153,1,1.754,1.168,0.15,3.095,r_re_order
79,18,r,90,keith,90,1,2.186,1.245,0.25,4.759,r_re_order
79,19,r,85,tony,27,1,1.68,1.048,0.25,5.44,r_re_order
79,20,r,65,paul,83,1,2.084,1.125,0.25,6.933,r_re_order
80,1,r,85,kyle,23,0,5.311,8.503,0.15,15.637,r_re_order
80,2,r,80,blake,22,0,6.833,4.83,0.5,3.849,r_re_order
80,3,r,75,joshua,62,0,2.057,6.63,0.35,3.082,r_re_order
80,4,r,85,tony,27,0,3.63,2.35,0.2,3.563,r_re_order
80,5,r,80,cory,47,0,2.077,1.153,0.35,4.344,r_re_order
80,6,r,90,connor,153,0,2.794,1.407,0,3.919,r_re_order
80,7,r,60,mark,116,0,2.159,1.082,0.2,2.853,r_re_order
80,8,r,60,joseph,169,0,2.557,1.138,0.35,4.576,r_re_order
80,9,r,70,edward,54,0,2.047,1.239,0.1,4.314,r_re_order
80,10,r,55,tom,161,0,1.575,1.473,0.2,3.815,r_re_order
80,11,r,75,michae,135,0,1.648,1.117,0.05,2.997,r_re_order
80,12,r,65,patric,145,0,1.826,1.019,0.15,5.192,r_re_order
80,13,r,70,tyler,81,0,1.912,0.914,0.2,3.646,r_re_order
80,14,r,95,scott,152,0,4.094,1.809,0,4.996,r_re_order
80,15,r,65,paul,83,0,1.999,1.009,0.05,10.99,r_re_order
80,16,r,95,ethan,20,0,2.05,1.36,0.15,2.569,r_re_order
80,17,r,55,logan,144,0,1.765,1.139,0,2.437,r_re_order
80,18,r,90,keith,90,0,1.714,0.97,0.3,4.403,r_re_order
80,19,r,50,nathan,160,0,2.035,1.402,0.5,2.439,r_re_order
80,20,r,50,anthony,63,0,1.832,1.24,0.35,2.658,r_re_order
81,1,r,50,nathan,160,0,2.796,3.355,0.3,88.62,re_r_order
81,2,r,65,paul,83,0,2.31,2.272,0.15,3.225,re_r_order
81,3,r,60,mark,116,0,3.119,2.179,0.15,3.108,re_r_order
81,4,r,50,anthony,63,0,2.672,1.608,0.2,3.391,re_r_order
81,5,r,55,tom,161,0,2.947,2.206,0.15,2.332,re_r_order
81,6,r,80,cory,47,0,2.761,2.085,0.2,2.95,re_r_order
81,7,r,90,keith,90,0,2.329,1.908,0.05,3.657,re_r_order
81,8,r,85,kyle,23,0,4.489,1.926,0.15,3.286,re_r_order
81,9,r,70,tyler,81,0,4.098,1.654,0.35,3.595,re_r_order
81,10,r,60,joseph,169,0,2.256,2.219,0.2,4.382,re_r_order
81,11,r,75,joshua,62,0,1.984,1.705,0.25,2.983,re_r_order
81,12,r,95,ethan,20,1,3.449,1.654,0.15,2.869,re_r_order
81,13,r,65,patric,145,0,3.053,2.17,0.15,5.1,re_r_order
81,14,r,80,blake,22,0,1.975,1.529,0.2,2.989,re_r_order
81,15,r,55,logan,144,0,9.826,5.349,0.15,3.456,re_r_order
81,16,r,95,scott,152,1,1.828,1.755,0.15,3.037,re_r_order
81,17,r,85,tony,27,0,3.152,1.832,0.2,4.628,re_r_order
81,18,r,70,edward,54,0,2.305,1.583,0.25,2.656,re_r_order
81,19,r,90,connor,153,0,2.227,1.549,0.15,2.939,re_r_order
81,20,r,75,michae,135,0,2.125,1.447,0.25,2.79,re_r_order
82,1,r,70,tyler,81,1,8.257,5.827,0.4,13.625,r_re_order
82,2,r,60,mark,116,0,3.478,3.131,0.2,5.113,r_re_order
82,3,r,80,blake,22,1,4.298,2.689,0.3,4.368,r_re_order
82,4,r,65,paul,83,0,3.933,3.313,0.3,5.768,r_re_order
82,5,r,55,logan,144,0,5.301,3.077,0.15,5.425,r_re_order
82,6,r,95,scott,152,1,6.048,2.605,0.25,5.906,r_re_order
82,7,r,90,keith,90,1,4.861,2.915,0.3,6.69,r_re_order
82,8,r,70,edward,54,0,3.218,4.668,0.45,4.994,r_re_order
82,9,r,85,tony,27,1,3.722,3.196,0.45,5.761,r_re_order
82,10,r,55,tom,161,0,3.395,2.611,0.3,5.387,r_re_order
82,11,r,50,nathan,160,0,5.536,3.271,0.25,6.428,r_re_order
82,12,r,50,anthony,63,0,5.282,2.435,0.2,3.652,r_re_order
82,13,r,75,michae,135,1,5.486,2.921,0.2,7.312,r_re_order
82,14,r,65,patric,145,0,3.607,2.215,0.2,14.197,r_re_order
82,15,r,80,cory,47,1,2.772,2.052,0.35,3.637,r_re_order
82,16,r,90,connor,153,1,3.462,2.881,0.15,3.361,r_re_order
82,17,r,75,joshua,62,1,3.569,2.507,0.25,5.93,r_re_order
82,18,r,95,ethan,20,1,3.398,2.966,0.2,6.061,r_re_order
82,19,r,85,kyle,23,1,4.293,2.557,0.35,4.315,r_re_order
82,20,r,60,joseph,169,0,2.897,2.659,0.4,4.822,r_re_order
83,1,r,50,anthony,63,0,8.726,6.627,0.25,17.813,r_re_order
83,2,r,55,logan,144,0,6.248,6.124,0.25,12.639,r_re_order
83,3,r,75,joshua,62,0,5.544,7.146,0.25,7.441,r_re_order
83,4,r,85,tony,27,0,4.434,5.404,0.5,9.671,r_re_order
83,5,r,60,mark,116,0,4.049,4.379,0.5,4.816,r_re_order
83,6,r,70,edward,54,0,7.128,2.803,0.25,6.61,r_re_order
83,7,r,80,cory,47,0,2.478,2.103,0.25,4.987,r_re_order
83,8,r,80,blake,22,0,2.417,1.968,0.2,3.469,r_re_order
83,9,r,65,paul,83,0,2.217,1.822,0.3,4.473,r_re_order
83,10,r,95,ethan,20,0,2.581,1.636,0.3,2.554,r_re_order
83,11,r,85,kyle,23,0,2.857,2.076,0.25,3.822,r_re_order
83,12,r,55,tom,161,0,2.585,2.252,0.25,3.221,r_re_order
83,13,r,90,keith,90,0,2.118,1.466,0.35,4.329,r_re_order
83,14,r,70,tyler,81,0,1.942,1.228,0.35,3.17,r_re_order
83,15,r,65,patric,145,0,1.823,1.176,0.35,2.477,r_re_order
83,16,r,90,connor,153,0,2.319,1.434,0.3,2.527,r_re_order
83,17,r,75,michae,135,0,1.685,1.734,0.4,2.336,r_re_order
83,18,r,95,scott,152,0,1.859,1.271,0.4,3.133,r_re_order
83,19,r,60,joseph,169,0,2.333,3.671,0.45,2.228,r_re_order
83,20,r,50,nathan,160,0,1.96,1.57,0.35,4.731,r_re_order
84,1,r,50,anthony,63,0,5.012,2.921,0.4,12.878,r_re_order
84,2,r,75,michae,135,0,3.858,2.543,0.2,5.556,r_re_order
84,3,r,90,keith,90,1,2.876,2.618,0.1,5.467,r_re_order
84,4,r,85,tony,27,1,3.261,2.549,0.3,6.407,r_re_order
84,5,r,55,tom,161,0,2.006,2.119,0.3,4.026,r_re_order
84,6,r,65,patric,145,0,2.986,1.488,0.25,5.792,r_re_order
84,7,r,60,joseph,169,0,2.605,1.424,0.4,5.718,r_re_order
84,8,r,95,scott,152,1,2.982,1.682,0.25,11.575,r_re_order
84,9,r,70,tyler,81,0,2.414,1.808,0.45,4.114,r_re_order
84,10,r,70,edward,54,0,2.7,1.546,0.45,5.847,r_re_order
84,11,r,65,paul,83,0,2.39,1.718,0.25,6.121,r_re_order
84,12,r,80,blake,22,0,3.773,2.072,0.15,5.895,r_re_order
84,13,r,60,mark,116,0,2.355,2.073,0.35,5.821,r_re_order
84,14,r,50,nathan,160,0,1.972,1.681,0.4,4.813,r_re_order
84,15,r,55,logan,144,0,2.507,1.551,0.05,6.213,r_re_order
84,16,r,80,cory,47,0,3,1.484,0.2,6.03,r_re_order
84,17,r,85,kyle,23,1,3.223,1.416,0.15,3.999,r_re_order
84,18,r,90,connor,153,1,1.93,6.858,0.2,3.458,r_re_order
84,19,r,95,ethan,20,1,3.997,2.262,0.45,7.26,r_re_order
84,20,r,75,joshua,62,0,2.844,6.118,0.45,4.774,r_re_order
85,1,r,70,tyler,81,0,4.517,2.684,0,4.228,re_r_order
85,2,r,60,joseph,169,0,2.601,2.939,0,3.722,re_r_order
85,3,r,50,nathan,160,0,3.901,1.811,0,3.423,re_r_order
85,4,r,95,scott,152,0,3.166,1.76,0,3.519,re_r_order
85,5,r,70,edward,54,0,3.095,2.178,0,3.591,re_r_order
85,6,r,65,paul,83,0,2.533,2.192,0,3.635,re_r_order
85,7,r,90,keith,90,0,2.586,1.794,0,3.495,re_r_order
85,8,r,95,ethan,20,0,3.364,1.837,0,3.05,re_r_order
85,9,r,55,logan,144,0,3.679,1.825,0,4.023,re_r_order
85,10,r,75,joshua,62,0,3.064,1.833,0,3.797,re_r_order
85,11,r,80,blake,22,0,3.137,1.886,0,3.254,re_r_order
85,12,r,75,michae,135,0,3.835,1.682,0,2.682,re_r_order
85,13,r,65,patric,145,0,2.397,2.043,0,3.37,re_r_order
85,14,r,85,kyle,23,0,2.429,1.764,0,2.87,re_r_order
85,15,r,80,cory,47,0,3.275,1.899,0,3.19,re_r_order
85,16,r,55,tom,161,0,2.335,1.747,0,6.013,re_r_order
85,17,r,50,anthony,63,0,3.43,1.685,0,6.314,re_r_order
85,18,r,60,mark,116,0,2.653,1.844,0,3.156,re_r_order
85,19,r,90,connor,153,0,2.469,1.535,0,2.846,re_r_order
85,20,r,85,tony,27,0,2.661,1.786,0,3.269,re_r_order
86,1,r,75,michae,135,0,8.093,7.031,0.25,13.545,r_re_order
86,2,r,75,joshua,62,0,6.41,3.257,0.25,5.336,r_re_order
86,3,r,70,edward,54,0,2.502,4.461,0.25,5.473,r_re_order
86,4,r,60,mark,116,0,2.95,1.995,0.25,6.086,r_re_order
86,5,r,90,keith,90,0,2.841,2.3,0.2,4.158,r_re_order
86,6,r,60,joseph,169,0,6.667,2.102,0.25,5.976,r_re_order
86,7,r,85,tony,27,0,3.255,3.357,0.25,7.663,r_re_order
86,8,r,70,tyler,81,0,3.663,4.359,0.25,5.058,r_re_order
86,9,r,50,nathan,160,0,3.825,2.599,0.25,4.386,r_re_order
86,10,r,80,cory,47,0,3.383,1.87,0.15,3.278,r_re_order
86,11,r,65,paul,83,0,3.328,2.323,0.25,17.345,r_re_order
86,12,r,90,connor,153,0,3.054,1.5,0.15,6.092,r_re_order
86,13,r,55,tom,161,0,2.639,2.288,0.35,3.223,r_re_order
86,14,r,65,patric,145,0,3.136,2.443,0.2,4.745,r_re_order
86,15,r,85,kyle,23,0,2.653,2.136,0.2,5.44,r_re_order
86,16,r,50,anthony,63,0,2.876,2.336,0.1,3.266,r_re_order
86,17,r,55,logan,144,0,4.045,2.291,0.1,3.266,r_re_order
86,18,r,95,scott,152,0,3.1,1.832,0.05,3.573,r_re_order
86,19,r,95,ethan,20,0,2.896,2.433,0.3,4.782,r_re_order
86,20,r,80,blake,22,0,7.26,2.21,0.3,2.436,r_re_order
87,1,r,65,paul,83,0,3.891,6.244,0.15,9.861,r_re_order
87,2,r,70,tyler,81,0,4.466,3.05,0.1,7.429,r_re_order
87,3,r,90,keith,90,1,4.905,2.582,0.2,5.725,r_re_order
87,4,r,90,connor,153,1,3.465,2.524,0.15,9.025,r_re_order
87,5,r,55,logan,144,0,2.927,2.329,0.15,8.748,r_re_order
87,6,r,50,anthony,63,0,2.461,2.234,0.25,5.498,r_re_order
87,7,r,70,edward,54,0,2.538,1.782,0.2,8.299,r_re_order
87,8,r,85,tony,27,0,2.913,3.037,0.1,6.441,r_re_order
87,9,r,60,mark,116,0,2.205,1.756,0.05,4.824,r_re_order
87,10,r,80,cory,47,0,2.624,1.397,0.15,6.971,r_re_order
87,11,r,60,joseph,169,0,2.053,1.195,0.05,10.032,r_re_order
87,12,r,75,joshua,62,0,2.565,1.669,0.3,5.354,r_re_order
87,13,r,95,scott,152,1,2.39,1.392,0.15,4.769,r_re_order
87,14,r,65,patric,145,0,2.391,1.408,0.2,5.391,r_re_order
87,15,r,75,michae,135,0,2.779,1.967,0.2,10.264,r_re_order
87,16,r,80,blake,22,0,2.531,1.437,0.05,6.09,r_re_order
87,17,r,95,ethan,20,1,2.644,1.496,0.3,7.659,r_re_order
87,18,r,55,tom,161,0,2.176,1.527,0.15,3.612,r_re_order
87,19,r,50,nathan,160,0,2.698,1.462,0.2,5.682,r_re_order
87,20,r,85,kyle,23,0,2.613,1.275,0.1,5.795,r_re_order
88,1,r,95,scott,152,1,4.477,3.441,0.15,5.179,re_r_order
88,2,r,85,kyle,23,0,3.092,3.383,0.4,4.934,re_r_order
88,3,r,70,edward,54,1,3.417,3.342,0.2,4.727,re_r_order
88,4,r,60,joseph,169,0,3.036,2.506,0.15,3.818,re_r_order
88,5,r,90,keith,90,1,2.624,2.644,0.3,4.676,re_r_order
88,6,r,75,michae,135,1,5.146,2.54,0.3,4.265,re_r_order
88,7,r,80,cory,47,1,3.471,2.201,0.25,17.853,re_r_order
88,8,r,75,joshua,62,1,2.293,2.107,0.4,4.458,re_r_order
88,9,r,55,logan,144,0,2.882,2.192,0.15,5.478,re_r_order
88,10,r,60,mark,116,0,3.113,2.401,0.25,4.733,re_r_order
88,11,r,80,blake,22,1,3.271,1.841,0.2,5.035,re_r_order
88,12,r,50,nathan,160,0,2.896,2.468,0.35,4.873,re_r_order
88,13,r,65,paul,83,1,2.461,2.269,0.2,4.234,re_r_order
88,14,r,90,connor,153,1,3.28,2.012,0.15,3.61,re_r_order
88,15,r,55,tom,161,0,2.301,2.069,0.3,4.187,re_r_order
88,16,r,95,ethan,20,1,4.556,2.182,0.15,4.4,re_r_order
88,17,r,85,tony,27,1,2.788,1.836,0.25,3.544,re_r_order
88,18,r,65,patric,145,1,4.304,2.091,0.25,3.438,re_r_order
88,19,r,50,anthony,63,0,2.952,2.186,0.35,33.65,re_r_order
88,20,r,70,tyler,81,1,3.401,2.4,0.3,3.413,re_r_order
89,1,r,65,patric,145,0,4.768,4.009,0.25,18.633,r_re_order
89,2,r,55,logan,144,0,4.788,3.536,0.1,5.578,r_re_order
89,3,r,65,paul,83,0,3.841,4.18,0.5,6.117,r_re_order
89,4,r,95,scott,152,1,3.516,3.709,0.3,5.141,r_re_order
89,5,r,85,kyle,23,1,4.781,2.866,0.5,3.776,r_re_order
89,6,r,60,mark,116,0,3.881,2.084,0.3,3.259,r_re_order
89,7,r,70,tyler,81,0,2.719,1.974,0.2,3.328,r_re_order
89,8,r,85,tony,27,1,3.002,2.212,0.05,5.039,r_re_order
89,9,r,70,edward,54,0,2.585,1.471,0.4,3.724,r_re_order
89,10,r,50,nathan,160,0,2.323,2.93,0.25,3.199,r_re_order
89,11,r,90,keith,90,1,3.485,1.832,0,4.491,r_re_order
89,12,r,55,tom,161,0,2.345,1.533,0.4,3.345,r_re_order
89,13,r,80,blake,22,0,2.363,1.193,0.25,18.098,r_re_order
89,14,r,80,cory,47,0,2.45,1.176,0.45,2.858,r_re_order
89,15,r,90,connor,153,1,2.239,1.265,0.05,3.38,r_re_order
89,16,r,60,joseph,169,0,3.673,1.863,0.35,4.943,r_re_order
89,17,r,50,anthony,63,0,2.03,1.772,0.3,9.539,r_re_order
89,18,r,75,michae,135,0,2.805,1.446,0.2,2.411,r_re_order
89,19,r,75,joshua,62,0,2.438,1.201,0.3,3.823,r_re_order
89,20,r,95,ethan,20,1,2.603,1.461,0.45,3.21,r_re_order
90,1,r,50,anthony,63,0,1.88,2.075,0.1,13.349,re_r_order
90,2,r,75,joshua,62,0,1.568,1.377,0.25,2.924,re_r_order
90,3,r,95,scott,152,1,1.59,0.971,0,1.892,re_r_order
90,4,r,60,mark,116,0,1.408,1.053,0.25,3.019,re_r_order
90,5,r,75,michae,135,0,1.234,0.955,0.1,1.675,re_r_order
90,6,r,70,edward,54,0,2.217,1.091,0.25,2.12,re_r_order
90,7,r,55,logan,144,0,1.335,0.956,0.05,2.305,re_r_order
90,8,r,90,keith,90,0,1.321,1.011,0.15,3.131,re_r_order
90,9,r,80,cory,47,0,1.123,0.88,0.25,1.942,re_r_order
90,10,r,85,kyle,23,0,1.156,0.968,0.25,2.497,re_r_order
90,11,r,85,tony,27,0,1.048,27.183,0.3,3.103,re_r_order
90,12,r,65,patric,145,0,0.884,0.812,0.25,1.944,re_r_order
90,13,r,65,paul,83,0,0.947,0.768,0.35,46.12,re_r_order
90,14,r,90,connor,153,0,1.526,0.856,0.1,2.149,re_r_order
90,15,r,95,ethan,20,1,2.425,0.956,0.1,1.911,re_r_order
90,16,r,55,tom,161,0,1.417,0.824,0.15,1.881,re_r_order
90,17,r,60,joseph,169,0,1.144,0.947,0.25,2.042,re_r_order
90,18,r,70,tyler,81,0,1.111,0.883,0.4,2.104,re_r_order
90,19,r,80,blake,22,0,1.952,0.989,0.1,2.186,re_r_order
90,20,r,50,nathan,160,0,1.03,0.77,0.35,2.276,re_r_order
91,1,r,55,tom,161,1,5.315,3.082,0.2,46.657,re_r_order
91,2,r,75,joshua,62,1,4.126,8.071,0.2,4.742,re_r_order
91,3,r,85,tony,27,1,5.131,2.964,0.15,5.959,re_r_order
91,4,r,70,tyler,81,1,4.88,2.601,0.3,3.771,re_r_order
91,5,r,80,blake,22,1,4.747,2.793,0.5,6.178,re_r_order
91,6,r,75,michae,135,1,3.974,2.734,0.05,4.001,re_r_order
91,7,r,60,mark,116,1,4.682,2.978,0.2,3.901,re_r_order
91,8,r,95,ethan,20,1,4.795,2.916,0.3,4.083,re_r_order
91,9,r,70,edward,54,1,3.729,2.66,0.25,3.712,re_r_order
91,10,r,55,logan,144,1,4.494,2.876,0.3,5.598,re_r_order
91,11,r,90,keith,90,1,3.574,3.361,0.1,4.364,re_r_order
91,12,r,95,scott,152,1,5.058,2.318,0.15,3.977,re_r_order
