"","sub","trial","unfair","moneyA","moneyB","optionLeft","optionRight","partner","rp","choice","rt","rprt","EmoPredict_X","EmoPredict_Y","EmoPredict_RT","EmoPredict_Flag","EmoFeedback_X","EmoFeedback_Y","EmoFeedback_RT","EmoFeedback_Flag","EmoFinal_X","EmoFinal_Y","EmoFinal_RT","EmoFinal_Flag","EPE_X","EPE_Y","EmoRegu_X","EmoRegu_Y","EmoTotalChange_X","EmoTotalChange_Y","RPE","moneyA_N","rp_N","RPE_N","EmoPredict_X_N","EmoPredict_Y_N","EmoFeedback_X_N","EmoFeedback_Y_N","EmoFinal_X_N","EmoFinal_Y_N","EPE_X_N","EPE_Y_N","EmoRegu_X_N","EmoRegu_Y_N","EmoTotalChange_X_N","EmoTotalChange_Y_N","optionType"
"1",1,1,"hi",9.1,0.9,"PUNISH","COMPENSATE","CFD-WM-230-131-N.png",-3.6,"COMPENSATE",4.34194159903564,2.66255965200253,-48.75390625,-2.51953125,2.67417578597087,1,-238.1640625,-0.0703125,3.83426982100355,1,-70.078125,-0.984375,2.62223270803224,1,-189.41015625,2.44921875,168.0859375,-0.9140625,-21.32421875,1.53515625,4.5,1.07677717284165,-4.92623185637292,2.28744015276265,-0.40708976082196,-0.273743363308907,-1.35617758431244,-0.633741430708642,-1.22228021950489,-0.767290600415019,-0.949430830404714,-0.447989747098077,0.419741750439883,-0.0614574157839797,-0.67968572008366,-0.534374541294744,4
"2",1,2,"lo",5.9,4.1,"REVERSE","PUNISH","CFD-WM-229-129-N.png",5.5,"REVERSE",5.9007058480056,2.46538551704725,2.63671875,2.12890625,2.27803241304355,1,-116.2109375,-0.83984375,3.66302578098839,1,32.0234375,-1.5078125,5.03518131998135,1,-118.84765625,-2.96875,148.234375,-0.66796875,29.38671875,-3.63671875,-1.4,-1.06588093310148,2.4748089198478,-0.746064674084448,0.111918430114539,-0.195040611692307,-0.557626567231752,-0.642045755040365,-0.344805958266768,-0.773586977465343,-0.547796371325157,-0.505021931246704,0.291331856948992,-0.0584688833050261,-0.34148342594767,-0.592412559514083,5
"3",1,3,"lo",5.9,4.1,"REVERSE","ACCEPT","CFD-WM-245-123-N.png",5.4,"REVERSE",6.39173661998939,1.51806980796391,-136.640625,2.30859375,7.46060793101788,1,-139.109375,-0.09375,2.24704325001221,1,34.31640625,1.953125,2.86044032499194,1,-2.46875,-2.40234375,173.42578125,2.046875,170.95703125,-0.35546875,-1.3,-1.06588093310148,2.39347880142779,-0.694649338036192,-1.29468213600289,-0.191998320453346,-0.707565902982137,-0.633994354292349,-0.325099883152116,-0.731955708311707,0.114620338116674,-0.499059662536141,0.4542825462687,-0.0255001519895847,0.602679841967641,-0.555590856112085,3
"4",1,5,"hi",9.3,0.699999999999999,"ACCEPT","COMPENSATE","CFD-WM-251-002-N.png",4.4,"COMPENSATE",3.63641548500163,6.12192427803529,-55.1875,-1.4609375,1.48963755904697,1,-243.16015625,-0.40234375,4.23163514997577,1,48.74609375,0.984375,1.65064941096352,1,-187.97265625,1.05859375,291.90625,1.38671875,103.93359375,2.4453125,-3.7,1.2106933044631,1.58017761722771,-1.92861740319433,-0.472064410447409,-0.255820299705463,-1.38889208626139,-0.637324514811162,-0.201089250318172,-0.74360870464365,-0.941248728935423,-0.462628144759873,1.22067382518885,-0.0335170089569367,0.155685930183222,-0.524160902136809,2
"5",1,6,"hi",9.6,0.4,"COMPENSATE","PUNISH","CFD-WM-204-031-N.png",3.7,"COMPENSATE",2.10276727000019,2.56195404799655,-122.0078125,1.87890625,2.5720446210471,1,-219.3671875,-3.61328125,1.920608335,1,-142.9296875,-1.8046875,2.57995250896784,1,-97.359375,-5.4921875,76.4375,1.80859375,-20.921875,-3.68359375,-3.3,1.41156750189527,1.01086678828766,-1.72295605900131,-1.14690129963559,-0.199273364720426,-1.23309534554908,-0.671975045779064,-1.84837613243209,-0.777158056986422,-0.425487294742084,-0.531584866329627,-0.173086451268752,-0.0283938104215875,-0.67700240192806,-0.592938583848397,4
"6",1,7,"lo",5.6,4.4,"ACCEPT","REVERSE","CFD-WM-243-107-N.png",4.5,"REVERSE",3.26989625702845,2.19183913397137,-0.5859375,-3.59375,6.91469020600198,1,-43.24609375,-1.21875,1.69947713904548,1,-69.04296875,0.46484375,1.60293891397305,1,-42.66015625,2.375,-25.796875,1.68359375,-68.45703125,4.05859375,-0.0999999999999996,-1.26675513053365,1.66150773564772,-0.0776653054571216,0.0793719298467818,-0.291930973976609,-0.0798516009264907,-0.6461346863103,-1.21338395050083,-0.749858093805539,-0.114144993452722,-0.448771009894633,-0.834389822469776,-0.0299117951728021,-0.994024718777611,-0.50605689796416,3
"7",1,8,"md",7.9,2.1,"REVERSE","PUNISH","CFD-WM-219-008-N.png",4.1,"REVERSE",3.70833833998768,1.56520489603281,-36.34765625,-2.6015625,3.46081416303059,1,-108.34765625,-3,1.80700646399055,1,-134.24609375,-2.62890625,1.31744727201294,1,-72,-0.3984375,-25.8984375,0.37109375,-97.8984375,-0.02734375,-2,0.273280383112976,1.33618726196769,-1.05455669037398,-0.281795597366934,-0.275132235396259,-0.506137675579496,-0.665356878672056,-1.77374818527728,-0.787072501446261,-0.281144352517522,-0.477965567029114,-0.835046779815459,-0.045850635060555,-1.19037587352287,-0.551908685771886,5
"8",1,9,"lo",5.6,4.4,"PUNISH","ACCEPT","CFD-WM-254-152-N.png",2.6,"PUNISH",5.61245800304459,1.71350341296056,-65.55859375,2.8671875,4.45527968101669,1,-82.3359375,3,1.25399931502761,1,-89.4609375,0.4921875,1.27959049696801,1,-16.77734375,0.1328125,-7.125,-2.5078125,-23.90234375,-2.375,1.8,-1.26675513053365,0.11623548566757,0.899226079459739,-0.576804965854555,-0.182540762906141,-0.335812524306583,-0.600608441242984,-1.3888586602526,-0.749529178586492,0.0331773009372885,-0.472373370169552,-0.7136107412249,-0.0808117213619654,-0.696879797585567,-0.578253737848791,1
"9",1,10,"md",7.6,2.4,"REVERSE","ACCEPT","CFD-WM-249-239-N.png",3,"REVERSE",2.20395088300575,0.860586777038407,-133.94921875,-2.28515625,3.98194573796354,1,-133.4765625,1.69140625,1.33822233200772,1,-124.12890625,-7.01953125,1.02626966399839,1,0.47265625,3.9765625,9.34765625,-8.7109375,9.8203125,-4.734375,-0.6,0.0724061856808066,0.441555959347602,-0.334741985698401,-1.26750087699139,-0.269775157345045,-0.670682156453298,-0.614730007999975,-1.68679974482251,-0.839886888047488,0.131362518568783,-0.431912181126834,-0.607057313273092,-0.156141714640988,-0.471976053534111,-0.604730296009275,3
"10",1,11,"lo",5.9,4.1,"REVERSE","PUNISH","CFD-WM-232-070-N.png",3.2,"REVERSE",2.75046670803567,1.42975589900743,-19.87109375,-1.046875,1.63896020594984,1,-62.34375,-0.18359375,1.11657052399823,1,-94.7578125,-0.66796875,1.02713162300643,1,-42.47265625,0.86328125,-32.4140625,-0.484375,-74.88671875,0.37890625,0.899999999999999,-1.06588093310148,0.604216196187618,0.436488055025436,-0.115394217816147,-0.24880980250264,-0.204903360135572,-0.634963894696561,-1.43438070089224,-0.763484581451763,-0.113077762826292,-0.464684099487653,-0.877193120300073,-0.0562393432016797,-1.03690570600206,-0.547349808207829,5
"11",1,12,"md",7.3,2.7,"REVERSE","COMPENSATE","CFD-WM-253-119-N.png",5.2,"REVERSE",3.65410987398354,2.34201675798977,-8.70703125,-0.6484375,1.87018685397925,1,-239.8046875,-2.48046875,4.01823482097825,1,-90.59375,-5.9296875,1.59744932799367,1,-231.09765625,-1.83203125,149.2109375,-3.44921875,-81.88671875,-5.28125,-2.5,-0.128468011751362,2.23081856458777,-1.31163337061526,-0.00264525082796591,-0.242063852364074,-1.36692042310725,-0.659750405899877,-1.39859419991742,-0.826777267174052,-1.18671177301416,-0.493056274731022,0.29764875450364,-0.0922440440195501,-1.083590231583,-0.610867246576274,6
"12",1,13,"hi",9.8,0.199999999999999,"ACCEPT","COMPENSATE","CFD-WM-212-097-N.png",6.6,"COMPENSATE",2.92586468096124,1.58680361596635,-1.9375,-0.1796875,1.5860146030318,1,-249.25,-0.8203125,1.59194934996776,1,-250,-19,0.068534730002284,1,-247.3125,-0.640625,-0.75,-18.1796875,-248.0625,-18.8203125,-6.4,1.54548363351671,3.36944022246788,-3.31683147649724,0.0657221248860013,-0.234127440436349,-1.42876848074022,-0.641834985387276,-2.7685524848897,-0.983998741878416,-1.27900498822891,-0.480514950891562,-0.672374033988156,-0.271129059545492,-2.1918527331112,-0.762800608470706,2
"13",1,14,"lo",5.3,4.7,"COMPENSATE","PUNISH","CFD-WM-239-128-N.png",3.5,"COMPENSATE",6.78166059200885,2.46463363699149,-65.2265625,-0.953125,2.59317766898312,1,-151.3828125,1.16015625,2.4629278719658,1,-93.71484375,-0.33203125,1.48922351497458,1,-86.15625,2.11328125,57.66796875,-1.4921875,-28.48828125,0.62109375,1.2,-1.46762932796582,0.848206551447641,0.590734063170204,-0.573451690069392,-0.247222520117095,-0.78793256844234,-0.620462942564008,-1.42541729023532,-0.759443623046331,-0.361720264812933,-0.451525989229859,-0.294497222269093,-0.0684780952583471,-0.727464414232898,-0.544632015813872,4
"14",1,15,"lo",6,4,"REVERSE","ACCEPT","CFD-WM-233-106-N.png",2.9,"REVERSE",2.21576337702572,2.2415988179855,-89.4375,-4.53125,1.49180189997423,1,-47.734375,5.359375,1.45441338501405,1,-172.65234375,-4.76171875,1.37072585301939,1,41.703125,9.890625,-124.91796875,-10.12109375,-83.21484375,-0.23046875,1.1,-0.998922867290762,0.360225840927594,0.539318727121948,-0.817964670262796,-0.307803797832058,-0.109240938486571,-0.57514746714978,-2.1038165507411,-0.81272788853191,0.366042086526308,-0.369657871969645,-1.47555492426658,-0.173266480115628,-1.09244778665974,-0.554188124553914,3
"15",1,16,"hi",9.1,0.9,"PUNISH","COMPENSATE","CFD-WM-214-026-N.png",3.4,"COMPENSATE",2.75347981299274,3.42368511902168,-143.453125,-1.83984375,3.31975884200074,1,-234.80859375,-5.484375,1.53409225103678,1,-39.79296875,-5.3203125,1.37083892500959,1,-91.35546875,-3.64453125,195.015625,0.1640625,103.66015625,-3.48046875,-2.5,1.07677717284165,0.766876433027633,-1.31163337061526,-1.36348346505376,-0.262235566013707,-1.3342059211583,-0.692166778545032,-0.962005602189904,-0.819447156578152,-0.391313680724962,-0.512135534604824,0.593936517406865,-0.0483647973047541,0.153862315902717,-0.590659145066368,4
"16",1,17,"md",7.3,2.7,"REVERSE","ACCEPT","CFD-WM-256-138-N.png",4.4,"REVERSE",2.91263222397538,0.920549926988315,-43.53125,-1.5703125,1.53686829202343,1,-171.65234375,-11.4375,1.12943170097424,1,100.40234375,3.5546875,2.3588103200309,1,-128.12109375,-9.8671875,272.0546875,14.9921875,143.93359375,5.125,-1.7,-0.128468011751362,1.58017761722771,-0.900310682229215,-0.354344705236516,-0.257672129155265,-0.920657783933426,-0.75640936880669,0.242851358397605,-0.712690674053252,-0.600579819390639,-0.577638252231907,1.09226393169796,0.131706143808074,0.422454647788564,-0.494089844358511,3
"17",1,18,"hi",8.9,1.1,"ACCEPT","REVERSE","CFD-WM-208-068-N.png",3.7,"REVERSE",4.39580963598564,1.00295746600023,-123.609375,1.7734375,4.94381124695064,1,-222.69921875,-0.23046875,1.63807791797444,1,45.78125,0.7890625,2.27896144404076,1,-99.08984375,-2.00390625,268.48046875,1.01953125,169.390625,-0.984375,-2.6,0.942861041220207,1.01086678828766,-1.36304870666352,-1.16307592401108,-0.201059057404164,-1.25491353957758,-0.635469741863975,-0.226569507578855,-0.745958099065413,-0.435336944065171,-0.494865514891469,1.06914408664795,-0.0379760891636294,0.592233137303604,-0.562648349264135,3
"18",1,19,"hi",9.6,0.4,"PUNISH","ACCEPT","CFD-WM-250-157-N.png",3.8,"PUNISH",5.25749224098399,1.33864675601944,-134.46484375,3.30078125,1.96281860797899,1,-246.48046875,-4.05078125,3.43105186097091,1,247.8046875,2.52734375,1.00452293496346,1,-112.015625,-7.3515625,494.28515625,6.578125,382.26953125,-0.7734375,-3.4,1.41156750189527,1.09219690670766,-1.77437139504956,-1.27270831703423,-0.175199581872995,-1.41063354572708,-0.676696286008268,1.50964649374923,-0.725048488711724,-0.50890915537464,-0.551157555338096,2.52976240682395,0.0295267952419433,2.01196895794211,-0.560281239759721,1
"19",1,20,"hi",9.4,0.6,"REVERSE","COMPENSATE","CFD-WM-237-052-N.png",3.7,"REVERSE",2.50940868002363,2.41608252300648,-175.49609375,5.6171875,1.13538438000251,1,-250,-1,0.960240127984434,1,250,-2.47265625,0.860928286972921,1,-74.50390625,-6.6171875,500,-1.47265625,425.49609375,-8.08984375,-3.1,1.27765137027382,1.01086678828766,-1.6201253869048,-1.68709430347365,-0.135980479596824,-1.4336794927607,-0.643774066195699,1.52851329820312,-0.785192985908851,-0.29539632817463,-0.543427165561641,2.56672889131375,-0.0682409101409698,2.30025632405741,-0.642384871273936,6
"20",1,21,"lo",5.5,4.5,"COMPENSATE","REVERSE","CFD-WM-209-038-N.png",3,"COMPENSATE",2.67527833697386,1.53777558600996,-221.2734375,-4.20703125,0.987734089023434,1,-145.5703125,0.14453125,1.25628574599978,1,105.90234375,-0.37890625,1.51166763901711,1,75.703125,4.3515625,251.47265625,-0.5234375,327.17578125,3.828125,1.5,-1.33371319634438,0.441555959347602,0.744980071314972,-2.14941240848922,-0.302314446248715,-0.749872225283593,-0.631422964524658,0.290119082011626,-0.760007477707554,0.559566573452153,-0.427964748049496,0.959128998836194,-0.0567137134364342,1.64453673205288,-0.508643184274539,6
"21",1,22,"md",8,2,"COMPENSATE","REVERSE","CFD-WM-247-084-N.png",2.6,"REVERSE",4.26773725904059,1.53455500496784,-155.6328125,7.16015625,2.01172292500269,1,-212.45703125,3.9921875,1.21904729201924,1,188.40625,-0.58984375,6.63002880697604,1,-56.82421875,-3.16796875,400.86328125,-4.58203125,344.0390625,-7.75,-0.6,0.340238448923699,0.11623548566757,-0.334741985698401,-1.4864895109142,-0.109856457001398,-1.18784753167285,-0.589901342866041,0.999168507048371,-0.762544823683058,-0.194765373690901,-0.50711900506904,1.92546271915607,-0.106000780827432,1.75700162989489,-0.638571194850158,6
"22",1,23,"md",7.3,2.7,"COMPENSATE","PUNISH","CFD-WM-244-003-N.png",3,"COMPENSATE",2.05778876901604,1.12306244799402,-148.5546875,-12.57421875,1.46853255300084,1,-220.98828125,-1.05859375,1.55291787598981,1,183.32421875,6.71484375,1.20813466998516,1,-72.43359375,11.515625,404.3125,7.7734375,331.87890625,19.2890625,-0.3,-0.128468011751362,0.441555959347602,-0.180495977553633,-1.4150055612352,-0.443979399158597,-1.24371029340585,-0.644406375154967,0.955492861862404,-0.67467747230913,-0.28361232334114,-0.352552328634512,1.94777400131909,0.0440425244254325,1.67590289767757,-0.335142824673223,4
"23",1,24,"lo",5.6,4.4,"ACCEPT","PUNISH","CFD-WM-218-074-N.png",3.1,"ACCEPT",4.6389647719916,1.23584322800161,-159.9765625,-0.5859375,4.01380344299832,1,-88.1015625,-0.4140625,0.766403493995313,1,249.47265625,-1.0234375,1.21437816997059,1,71.875,0.171875,337.57421875,-0.609375,409.44921875,-0.4375,1.3,-1.26675513053365,0.52288607776761,0.64214939921846,-1.5303582482448,-0.241005664107044,-0.37356592921405,-0.637450976603016,1.52398123663501,-0.767760479299371,0.537777281495888,-0.471962179223996,1.51607722243443,-0.0577573279528942,2.19323621742433,-0.556511398697135,1
"24",1,25,"hi",9.2,0.800000000000001,"PUNISH","ACCEPT","CFD-WM-227-099-N.png",3.4,"PUNISH",2.26723718096036,1.61193261604058,-127.46875,0.734375,1.57793461199617,1,-241.55859375,0.41015625,1.20404602499912,1,244.015625,0.78515625,1.14668746903772,1,-114.08984375,-0.32421875,485.57421875,0.375,371.484375,0.05078125,-2.6,1.14373523865238,0.766876433027633,-1.36304870666352,-1.20205282372568,-0.218651437177287,-1.37840502934265,-0.628556497242642,1.47708279211173,-0.746005086953848,-0.520715394179514,-0.477184304232558,2.47341568063649,-0.0458031980370795,1.94004040039247,-0.551031978548028,1
"25",1,26,"hi",9.2,0.800000000000001,"REVERSE","COMPENSATE","CFD-WM-224-197-N.png",4.6,"REVERSE",2.65956461697351,1.81420841702493,-107.43359375,0.984375,2.15405123797245,1,-247.0625,4.05078125,1.47491813095985,1,248.56640625,-0.05859375,1.39252031705109,1,-139.62890625,3.06640625,495.62890625,-4.109375,356,-1.04296875,-3.8,1.14373523865238,1.74283785406773,-1.98003273924259,-0.999712217818622,-0.214418684149167,-1.41444469568047,-0.589269033906772,1.51619280490316,-0.756154470855863,-0.666081099087737,-0.441492930158291,2.53845445785915,-0.100260900986902,1.83677172885071,-0.563305879682028,6
"26",1,27,"md",7.5,2.5,"REVERSE","COMPENSATE","CFD-WM-202-107-N.png",3.2,"REVERSE",3.71401358902222,1.52453673904529,-128.7421875,2.5078125,0.989129915018566,1,-197.1796875,1.80859375,1.24090881901793,1,208.734375,-1.62890625,3.30628747696755,1,-68.4375,-0.69921875,405.9140625,-3.4375,337.4765625,-4.13671875,-0.7,0.00544811987008378,0.604216196187618,-0.386157321746657,-1.21491362261937,-0.188625345384063,-1.08781123994311,-0.613465390081439,1.17387108779224,-0.775043602006836,-0.260866970615365,-0.481131737309896,1.95813371330872,-0.0921017329491238,1.71323488716277,-0.598023485746768,6
"27",1,28,"hi",9.5,0.5,"REVERSE","PUNISH","CFD-WM-238-020-N.png",4.1,"REVERSE",2.09608049696544,1.62499904702418,-115.90234375,1.57421875,1.3332538009854,1,-237.3046875,-0.32421875,1.31914143596077,1,246.30859375,-0.67578125,1.79447367502144,1,-121.40234375,-1.8984375,483.61328125,-0.3515625,362.2109375,-2.25,-3.6,1.34460943608455,1.33618726196769,-1.87720206714608,-1.08524047549195,-0.204432032473447,-1.35055038303897,-0.636481436198804,1.49678886722638,-0.763578557228633,-0.562337388610256,-0.493755299338468,2.46073135034675,-0.0546264844035142,1.87819382465076,-0.576851006290619,5
"28",1,29,"hi",9.6,0.4,"PUNISH","ACCEPT","CFD-WM-252-224-N.png",3.5,"PUNISH",3.0882469000062,1.07023672200739,-85.8125,1.0703125,1.86891177500365,1,-239.45703125,2.48828125,1.06906746799359,1,217.01953125,7.90234375,0.773263876966666,1,-153.64453125,1.41796875,456.4765625,5.4140625,302.83203125,6.83203125,-3.1,1.41156750189527,0.848206551447641,-1.6201253869048,-0.781354788749488,-0.212963675295751,-1.36464396441026,-0.606130606153927,1.24507481065114,-0.660393154224813,-0.745856588413327,-0.458845188060757,2.28519740109819,0.0153905622462576,1.48218295782275,-0.474933791517234,1
"29",1,30,"lo",5.6,4.4,"ACCEPT","COMPENSATE","CFD-WM-217-070-N.png",3.7,"COMPENSATE",5.26717672200175,0.865543067979161,-94.0234375,-3.1953125,2.14761379203992,1,-54.6796875,3.90625,1.56681286101229,1,239.03125,0.14453125,1.89268636400811,1,39.34375,7.1015625,293.7109375,-3.76171875,333.0546875,3.33984375,0.7,-1.26675513053365,1.01086678828766,0.333657382928925,-0.864279326401398,-0.285185023838043,-0.154718956051257,-0.590828729339634,1.43424641758652,-0.75371110065723,0.352612767810406,-0.399016905482348,1.23234745186984,-0.0960390058975866,1.68374443908374,-0.514122604423645,2
"30",1,31,"lo",5.6,4.4,"ACCEPT","COMPENSATE","CFD-WM-215-041-N.png",4.1,"COMPENSATE",1.54861646401696,1.12757639499614,-145.71875,-8.5078125,2.17699374200311,1,-116.828125,-0.078125,1.03432797000278,1,9.42578125,-0.4765625,1.44225821900181,1,28.890625,8.4296875,126.25390625,-0.3984375,155.14453125,8.03125,0.300000000000001,-1.26675513053365,1.33618726196769,0.127996038735902,-1.38636464099957,-0.375131025685587,-0.561667920873608,-0.633825738569878,-0.539013189166705,-0.761182174918435,0.293114660386973,-0.385036413333442,0.149151126788968,-0.0551957286852197,0.497222833289279,-0.461476335631028,2
"31",1,32,"md",7.5,2.5,"COMPENSATE","ACCEPT","CFD-WM-201-063-N.png",2.9,"COMPENSATE",1.82929469796363,1.54523801000323,-122.54296875,1.90625,1.2944813509821,1,-181.03515625,2.81640625,1.31203748099506,1,-28.1953125,-4.21484375,1.27086857898394,1,-58.4921875,0.91015625,152.83984375,-7.03125,94.34765625,-6.12109375,-0.4,0.00544811987008378,0.360225840927594,-0.231911313601889,-1.15230599119521,-0.198810407357976,-0.982096590564683,-0.602589675982024,-0.862333818518009,-0.806149584150975,-0.204259279471845,-0.464190670352986,0.321122345816713,-0.135743794546543,0.0917552238352234,-0.620291849232738,2
"32",1,33,"hi",9,1,"REVERSE","ACCEPT","CFD-WM-258-125-N.png",3.1,"REVERSE",1.46613909502048,1.16279998800019,-57.8359375,-0.25,2.81155410601059,1,-226.86328125,4.7421875,1.53973569901427,1,243.7265625,-0.65625,1.02729866700247,1,-169.02734375,4.9921875,470.58984375,-5.3984375,301.5625,-0.40625,-2.1,1.00981910703093,0.52288607776761,-1.10597202642224,-0.498811716122002,-0.235317902225508,-1.28217988756631,-0.581807788187407,1.47459855095587,-0.763343617786457,-0.833413967723296,-0.421221216542376,2.37648920455796,-0.115915118733802,1.47371617723469,-0.556160715807592,3
"33",1,34,"lo",6.1,3.9,"COMPENSATE","REVERSE","CFD-WM-220-068-N.png",2.1,"REVERSE",2.63102069200249,1.31277441798011,-98.0625,-0.3125,1.49760926398449,1,-47.16796875,9.75390625,1.34982417197898,1,221.05078125,-3.984375,1.15806027298095,1,50.89453125,10.06640625,268.21875,-13.73828125,319.11328125,-3.671875,1.8,-0.931964801480039,-0.290415106432469,0.899226079459739,-0.90507094007032,-0.236376090482538,-0.105532101283602,-0.527724295204659,1.27971990352733,-0.803377298733295,0.418358621192727,-0.367807512714642,1.0674511581033,-0.217193163853899,1.59076616241055,-0.592807077764818,6
"34",1,35,"md",7.4,2.6,"REVERSE","PUNISH","CFD-WM-235-147-N.png",2.5,"REVERSE",2.41736055404181,1.61488874501083,-151.5703125,3.125,1.09187690599356,1,-93.98046875,-1.69921875,2.70961219700985,1,164.3125,1.8671875,0.884700694994535,1,57.58984375,-4.82421875,258.29296875,3.56640625,315.8828125,-1.2578125,0.1,-0.061509945940639,0.0349053672475626,0.0251653666393899,-1.44546119542515,-0.178175736345892,-0.41206110156211,-0.6513196197763,0.792103649625586,-0.732989441857282,0.456467648144806,-0.524553501160618,1.00324621135786,-0.00704714985763267,1.56922146226801,-0.565716824547635,5
"35",1,36,"hi",9.5,0.5,"REVERSE","ACCEPT","CFD-WM-221-091-N.png",2.5,"REVERSE",2.38402329897508,3.0279587469995,-57.6328125,-5.1640625,1.36767268599942,1,-244.3203125,2.64453125,1.32187985797646,1,242.609375,-4.953125,1.42327264003688,1,-186.6875,7.80859375,486.9296875,-7.59765625,300.2421875,0.2109375,-2,1.34460943608455,0.0349053672475626,-1.05455669037398,-0.49676030034755,-0.318517953934486,-1.39648880798058,-0.604444448929211,1.46499729459678,-0.815030295065238,-0.933933752350105,-0.391574349367783,2.48218353444234,-0.142622162950484,1.46491072542311,-0.549234728739121,3
"36",1,37,"md",7.8,2.2,"ACCEPT","REVERSE","CFD-WM-200-034-N.png",2.5,"REVERSE",2.38253363297554,1.62771857599728,-89.546875,-1.8125,1.48895937902853,1,-182.91015625,1.6875,4.1146310030017,1,234.3125,3.60546875,1.11270803801017,1,-93.36328125,3.5,417.22265625,1.91796875,323.859375,5.41796875,-0.3,0.206322317302253,0.0349053672475626,-0.180495977553633,-0.819069278756732,-0.261772608651256,-0.994374120615891,-0.614772161930593,1.39369285925858,-0.712079831503594,-0.402741942016309,-0.436928710662618,2.03128338699154,-0.0270655737642748,1.62241889599361,-0.490802192269047,3
"37",1,38,"md",7.3,2.7,"REVERSE","PUNISH","CFD-WM-210-057-N.png",3.2,"REVERSE",2.16390870901523,0.971103322983254,-135.3671875,-2.22265625,0.920398289046716,1,-161.0859375,-0.3671875,1.12167844001669,1,201.703125,4.33203125,1.23750034999102,1,-25.71875,1.85546875,362.7890625,4.69921875,337.0703125,6.5546875,-0.5,-0.128468011751362,0.604216196187618,-0.283326649650145,-1.2818213371092,-0.268716969088015,-0.851468786457344,-0.636945129435601,1.1134436002175,-0.703340084254636,-0.0177162595605583,-0.454239849470529,1.67917951729545,0.00670958695024932,1.71052551737459,-0.478046102161927,5
"38",1,39,"md",7.9,2.1,"PUNISH","COMPENSATE","CFD-WM-225-127-N.png",2.6,"COMPENSATE",2.15857553901151,1.60333152400563,-83.80078125,0.68359375,4.2497349740006,1,-143.12890625,3.9765625,1.64203226298559,1,93.484375,4.80859375,1.75099541898817,1,-59.328125,3.29296875,236.61328125,0.83203125,177.28515625,4.125,-0.5,0.273280383112976,0.11623548566757,-0.283326649650145,-0.761037882521737,-0.219511215136124,-0.733885858029415,-0.590069958588512,0.183397424789344,-0.697607561865535,-0.209017349348009,-0.439108022674065,0.863011085644665,-0.0402530662904513,0.644883486745048,-0.505311696823882,4
"39",1,40,"hi",9.5,0.5,"REVERSE","PUNISH","CFD-WM-240-125-N.png",1.6,"REVERSE",2.50830706197303,1.89034876698861,-98.35546875,-4.3203125,1.28639885096345,1,-225.70703125,3.5859375,1.10217576898867,1,229.63671875,-1.37890625,1.45263659098418,1,-127.3515625,7.90625,455.34375,-4.96484375,327.9921875,2.94140625,-1.1,1.34460943608455,-0.697065698532508,-0.59181866593968,-0.908029712821934,-0.304232412464582,-1.27460874403473,-0.594285351650301,1.35350858002138,-0.772036377146979,-0.596199727028002,-0.390546372003893,2.2778697999348,-0.110649609128027,1.64998152326181,-0.518593811265317,5
"40",1,41,"md",7.3,2.7,"COMPENSATE","ACCEPT","CFD-WM-255-219-N.png",2.6,"COMPENSATE",1.36852044198895,1.29952127899742,-129.44921875,-1.71484375,1.48627577297157,1,-89.82421875,1.41015625,0.857507220003754,1,250,-3.9453125,0.720079152029939,1,39.625,3.125,339.82421875,-5.35546875,379.44921875,-2.23046875,0.1,-0.128468011751362,0.11623548566757,0.0251653666393899,-1.2220541275266,-0.260119189499647,-0.384845909948598,-0.617765091004463,1.52851329820312,-0.802907419848942,0.35421361375005,-0.440876143739957,1.53063135440034,-0.115393311475572,1.99315967922033,-0.576631829484655,2
"41",1,42,"hi",9.5,0.5,"ACCEPT","COMPENSATE","CFD-WM-206-045-N.png",2.2,"COMPENSATE",1.2443136619986,3.27017844800139,-114.73046875,-0.39453125,1.40006136504235,1,-247.109375,-0.75390625,1.26689426600933,1,241.58984375,-4.41796875,0.868667019996792,1,-132.37890625,-0.359375,488.69921875,-3.6640625,356.3203125,-4.0234375,-1.7,1.34460943608455,-0.209084988012461,-0.900310682229215,-1.07340538448549,-0.23776496256989,-1.41475163393175,-0.641118368566772,1.45623530889844,-0.808592954349608,-0.624814848199138,-0.477554376083558,2.49362975281136,-0.0948530803107002,1.83890796272216,-0.596752260272175,2
"42",1,43,"hi",9.4,0.6,"REVERSE","PUNISH","CFD-WM-216-061-N.png",2.3,"REVERSE",3.26244876696728,1.35890073800692,-149.3046875,3.640625,1.20193478796864,1,-250,3,0.888615831034258,1,250,-4.47265625,0.974946052010637,1,-100.6953125,-0.640625,500,-7.47265625,399.3046875,-8.11328125,-1.7,1.27765137027382,-0.127754869592453,-0.900310682229215,-1.42258001947933,-0.169445683225395,-1.4336794927607,-0.600608441242984,1.52851329820312,-0.809250784787702,-0.444475106303971,-0.480514950891562,2.56672889131375,-0.141104178199269,2.12558012761759,-0.642647883441093,5
"43",1,44,"md",7.1,2.9,"PUNISH","ACCEPT","CFD-WM-205-007-N.png",2.6,"PUNISH",2.14192826603539,1.47548268502578,-105.98828125,-1.1328125,1.2257291849819,1,-154.75390625,3.02734375,1.00459114002297,1,238.81640625,2.21875,1.11810908897314,1,-48.765625,4.16015625,393.5703125,-0.80859375,344.8046875,3.3515625,0.3,-0.262384143372809,0.11623548566757,0.127996038735901,-0.985115605577325,-0.250264811356056,-0.810006544346909,-0.600313363728658,1.43240002213285,-0.728760531898109,-0.148896690725825,-0.429979583682721,1.87828812821796,-0.0601766161501425,1.76210774988031,-0.513991098340067,1
"44",1,45,"hi",9.2,0.800000000000001,"COMPENSATE","REVERSE","CFD-WM-207-048-N.png",2.2,"COMPENSATE",3.01628334698034,1.40587041800609,-126.70703125,3.53515625,3.02829592901981,1,-237.78515625,5.34375,1.31971846002853,1,115.92578125,-3.578125,2.32172682898818,1,-111.078125,1.80859375,353.7109375,-8.921875,242.6328125,-7.11328125,-1.4,1.14373523865238,-0.209084988012461,-0.746064674084447,-1.19436001457149,-0.171231375909133,-1.3536965001146,-0.575316082872252,0.376261822632065,-0.798490558336028,-0.503573002242493,-0.454733278605196,1.62045763762744,-0.158703313908663,1.08070124815323,-0.631426030975723,6
"45",1,46,"md",7.5,2.5,"ACCEPT","PUNISH","CFD-WM-222-057-N.png",2.5,"PUNISH",6.043804136978,6.21562416601228,-163.96484375,-1.26953125,2.97577604599064,1,-112.6953125,16.890625,1.76970972499112,1,187.23046875,-1.6171875,0.659878073027357,1,51.26953125,18.16015625,299.92578125,-18.5078125,351.1953125,-0.34765625,0,0.00544811987008378,0.0349053672475626,-0.0262499694088659,-1.57063700797011,-0.252579598168309,-0.534606198385736,-0.450709063965781,0.989063688292817,-0.77490263834153,0.420493082445586,-0.282608748795424,1.27254818790762,-0.27511376951743,1.80472822077897,-0.5555031853897,1
"46",1,47,"lo",6,4,"PUNISH","REVERSE","CFD-WM-236-072-N.png",2.3,"REVERSE",1.80018608097453,2.17835676402319,-100.5625,0.078125,1.3039518329897,1,-55.30078125,2.11328125,2.06562366499566,1,225.203125,3.0390625,1.220297235006,1,45.26171875,2.03515625,280.50390625,0.92578125,325.765625,2.9609375,1.7,-0.998922867290762,-0.127754869592453,0.847810743411483,-0.930319134217428,-0.229762413876101,-0.158785887880719,-0.610177383493244,1.31540569202286,-0.718893075326706,0.38629723445708,-0.452348371120971,1.14691772934078,-0.0391145777270404,1.63513209269199,-0.518374634459352,5
"47",1,48,"lo",5.9,4.1,"COMPENSATE","PUNISH","CFD-WM-242-011-N.png",2.3,"COMPENSATE",3.14524900499964,0.931054930959363,-88.15234375,-1.046875,1.14963895000983,1,-52.8203125,5.4296875,1.16004825901473,1,224.9140625,0.6875,0.706863251980394,1,35.33203125,6.4765625,277.734375,-4.7421875,313.06640625,1.734375,1.8,-1.06588093310148,-0.127754869592453,0.899226079459739,-0.804985520459048,-0.24880980250264,-0.142543738750475,-0.574388696398659,1.31292145086701,-0.747179784164729,0.329778479199096,-0.405595960611245,1.1290030078758,-0.107945698789926,1.55043823517881,-0.532138937873908,4
"48",1,49,"lo",5.4,4.6,"COMPENSATE","PUNISH","CFD-WM-241-072-N.png",2,"COMPENSATE",2.45310778100975,2.48082950001117,-169.3203125,-0.40625,1.71440468198853,1,-67.23828125,1.16015625,1.44420051894849,1,193.7265625,2.2265625,0.98610420699697,1,102.08203125,1.56640625,260.96484375,1.06640625,363.046875,2.6328125,2.6,-1.4006712621551,-0.371745224852477,1.31054876784579,-1.62472337386962,-0.237963372868083,-0.236952829206747,-0.620462942564008,1.04489197264659,-0.728666556121239,0.709712582207924,-0.457282662467644,1.02052924306738,-0.037406844881924,1.88376887402259,-0.522056804799552,4
"49",1,50,"lo",5.7,4.3,"PUNISH","ACCEPT","CFD-WM-234-118-N.png",1.9,"PUNISH",3.92099812097149,2.30609476496466,-118.046875,-0.86328125,1.43382807297166,1,-118.53125,-1,0.65734799799975,1,-171.37109375,-26.7734375,0.622873861982953,1,-0.484375,-0.13671875,-52.83984375,-25.7734375,-53.32421875,-25.91015625,2.4,-1.19979706472293,-0.453075343272485,1.20771809574927,-1.10689869203377,-0.245701374497614,-0.572820010670123,-0.643774066195699,-2.09280531967192,-1.07750463986457,0.125915195579717,-0.475210587693889,-1.0093173495531,-0.363346633181776,-0.893100694167934,-0.842361789035736,1
"50",1,51,"md",7.1,2.9,"PUNISH","COMPENSATE","CFD-WM-211-054-N.png",2.2,"COMPENSATE",2.57078635803191,1.47405124804936,-131.43359375,-1.265625,4.10325906402431,1,-131.671875,0.33984375,1.38337214302737,1,113.0859375,-0.58984375,1.2895413619699,1,-0.23828125,1.60546875,244.7578125,-0.9296875,244.51953125,0.67578125,0.7,-0.262384143372809,-0.209084988012461,0.333657382928925,-1.24209488163086,-0.252513461402244,-0.65886503377901,-0.629315267993764,0.351855831817155,-0.762544823683058,0.127315935776906,-0.456871471522088,0.915694011250432,-0.0616471638778816,1.09328418668871,-0.544018320757172,4
"51",1,52,"lo",5.7,4.3,"COMPENSATE","REVERSE","CFD-WM-223-056-N.png",2.7,"COMPENSATE",3.33983535197331,1.15672820899636,-147.26953125,0.86328125,0.865534983051475,1,-58.3046875,3.6875,0.901443836046383,1,207.57421875,-6.5,0.760695139004383,1,88.96484375,2.82421875,265.87890625,-10.1875,354.84375,-7.36328125,1.6,-1.19979706472293,0.197565604087578,0.796395407363227,-1.40202641143145,-0.216468923897163,-0.17845551415026,-0.593189349454236,1.16390055234241,-0.833637498885599,0.635050906300641,-0.444042314020738,1.05231587156237,-0.17407290951471,1.82906044560743,-0.634231494092065,6
"52",1,53,"md",7.6,2.4,"PUNISH","ACCEPT","CFD-WM-203-023-N.png",2.1,"PUNISH",2.99629905098118,2.38337813899852,-82.53515625,2.64453125,1.23430262797046,1,-158.6171875,3.52734375,1.5047039820347,1,220.84765625,0.1640625,0.711046334006824,1,-76.08203125,0.8828125,379.46484375,-3.36328125,303.3828125,-2.48046875,0.3,0.0724061856808066,-0.290415106432469,0.127996038735901,-0.748255984234763,-0.18631055857181,-0.83530337188992,-0.594917660609569,1.27797422055295,-0.753476161215054,-0.304378852613743,-0.464478504014875,1.78704685993862,-0.0912004295030901,1.48585623801634,-0.579437292600998,1
"53",1,54,"md",7.6,2.4,"COMPENSATE","ACCEPT","CFD-WM-213-076-N.png",2.6,"COMPENSATE",1.68491092097247,1.54445868096082,-140.01171875,0.0546875,2.76477353204973,1,-160.5703125,2.9765625,1.09521648398368,1,102.640625,6.07421875,0.731285776011646,1,-20.55859375,2.921875,263.2109375,3.09765625,242.65234375,6.01953125,-0.2,0.0724061856808066,0.11623548566757,-0.129080641505378,-1.32872774779813,-0.230159234472487,-0.848092465693262,-0.600861364826691,0.262087441942231,-0.682383486012512,0.0116548166376312,-0.443014336656848,1.03505810744307,-0.0127395926746873,1.08083150631612,-0.484051546645348,2
"54",10,1,"md",7.4,2.6,"ACCEPT","REVERSE","CFD-WM-217-070-N.png",2.4,"REVERSE",8.61320280504879,3.18037890410051,-45.1953125,-28.515625,5.15048849396408,1,-34.421875,-30.890625,5.67224250803702,1,158.9453125,149.16796875,2.73656832694542,1,10.7734375,-2.375,193.3671875,180.05859375,204.140625,177.68359375,0.2,-0.061509945940639,-0.0464247511724454,0.0765807026876458,-0.371150534465685,-0.713883541467292,-0.0220704751229903,-0.966335943283761,0.745977334110199,1.03887684314776,0.189993501108243,-0.498771828874252,0.583273594334619,2.13625244481038,0.823988460723244,1.44233723633581,3
"55",10,2,"md",7.2,2.8,"COMPENSATE","ACCEPT","CFD-WM-213-076-N.png",2.3,"COMPENSATE",2.22688860795461,3.65323439205531,-46.7890625,-25.0078125,9.27325951110106,1,57.16015625,24.16796875,5.49814976996277,1,167.015625,147.3515625,1.87903126201127,1,103.94921875,49.17578125,109.85546875,123.18359375,213.8046875,172.359375,0.5,-0.195426077562085,-0.127754869592453,0.230826710832413,-0.387246258234467,-0.654492725541488,0.57761013331573,-0.37217629122466,0.815334661515432,1.01702747502537,0.720340420529449,0.0438768619760993,0.043077783051313,1.44556938300776,0.888440199722816,1.38258963902995,2
"56",10,3,"hi",8.8,1.2,"REVERSE","PUNISH","CFD-WM-256-138-N.png",2.2,"REVERSE",2.04364247596823,5.28750469500665,30.1015625,21.37109375,8.54121515806764,1,-91.7890625,-133.8125,3.59828480996657,1,73.43359375,62.453125,2.24383238900919,1,-121.890625,-155.18359375,165.22265625,196.265625,43.33203125,41.08203125,-1,0.875902975409484,-0.209084988012461,-0.540403329891424,0.389293513002538,0.130749097940782,-0.39771173831476,-2.07700770720382,0.0110783727220362,-0.00420729222647251,-0.565116635033249,-2.10730968879506,0.401220606809654,2.33306865521005,-0.248479097641902,-0.0905853445782907,5
"57",10,4,"lo",5.4,4.6,"PUNISH","COMPENSATE","CFD-WM-202-107-N.png",2.5,"COMPENSATE",3.70762522495352,4.51900695997756,52.85546875,59.83984375,5.06014744308777,1,200.4375,205.2265625,5.04644151893444,1,222.0703125,219.6484375,2.41680343390908,1,147.58203125,145.38671875,21.6328125,14.421875,169.21484375,159.80859375,2.1,-1.4006712621551,0.0349053672475626,1.05347208760451,0.61909153004458,0.782063970142701,1.51579247654131,1.58170054684497,1.28848188922567,1.88667931418507,0.968693880888099,1.05664016088071,-0.527590742035616,0.124780338380657,0.591060813837565,1.24174662351731,4
"58",10,5,"lo",5.7,4.3,"REVERSE","PUNISH","CFD-WM-234-118-N.png",2.4,"PUNISH",3.52206226298586,2.77825815696269,13.8828125,14.5625,3.88286390004214,1,149.25390625,158.16796875,5.01980135694612,1,110.234375,104.3203125,3.28338895004708,1,135.37109375,143.60546875,-39.01953125,-53.84765625,96.3515625,89.7578125,1.9,-1.19979706472293,-0.0464247511724454,0.950641415507995,0.225495853473172,0.0154727146905843,1.18064148433093,1.0738721446913,0.327349128522954,0.499408896022594,0.899190486341891,1.03788985376335,-0.919920615359714,-0.704276520899873,0.105119711348069,0.455647091245862,5
"59",10,6,"hi",9.1,0.9,"ACCEPT","PUNISH","CFD-WM-258-125-N.png",2.7,"PUNISH",4.03976661490742,4.49881993606687,32.765625,35.58203125,3.31656259601004,1,-221.5625,-219.78125,5.61853117402643,1,59.3828125,34.0234375,2.61515422200318,1,-254.328125,-255.36328125,280.9453125,253.8046875,26.6171875,-1.55859375,-1.8,1.07677717284165,0.197565604087578,-0.951726018277471,0.416198619890551,0.371354652882961,-1.24747028698404,-3.00473141224225,-0.109675889948158,-0.346185144258261,-1.31893720083447,-3.16184998776817,1.14977296703548,3.0318160110035,-0.35995403344593,-0.569092147359484,1
"60",10,7,"lo",6,4,"PUNISH","ACCEPT","CFD-WM-200-034-N.png",2.5,"ACCEPT",2.23849689099006,4.5323695410043,49.97265625,40.8515625,8.55700696306303,1,150.8125,135.015625,2.96355245797895,1,77.4296875,80.078125,2.29341781209223,1,100.83984375,94.1640625,-73.3828125,-54.9375,27.45703125,39.2265625,1.5,-0.998922867290762,0.0349053672475626,0.744980071314972,0.589977206168696,0.460573150303797,1.19084718118599,0.824025797919087,0.0454213281603483,0.207802060393399,0.70264217930783,0.51744547397303,-1.14219960651268,-0.717511450449525,-0.354352932441521,-0.111407141144896,1
"61",10,8,"hi",9,1,"PUNISH","REVERSE","CFD-WM-243-107-N.png",0.8,"REVERSE",6.72179432702251,5.04892565496266,-100.203125,-111.0390625,4.09279615699779,1,-54.4140625,-51.3125,4.00686987594236,1,176.1796875,144.0703125,2.95821233897004,1,45.7890625,59.7265625,230.59375,195.3828125,276.3828125,255.109375,0.2,1.00981910703093,-1.34770664589257,0.0765807026876457,-0.926689706308781,-2.11108886134318,-0.152979639294002,-1.18671669255407,0.89409182032118,0.977557648739752,0.389298820593913,0.154939536370795,0.824073729117813,2.32234788790459,1.30578735363273,2.31119793053937,5
"62",10,9,"lo",5.6,4.4,"ACCEPT","COMPENSATE","CFD-WM-208-068-N.png",1.4,"COMPENSATE",4.44786891900003,6.5856296189595,16.85546875,-10.18359375,3.70608635107055,1,158.96875,155.39453125,2.54325529397465,1,119.35546875,158.73828125,4.29223042796366,1,142.11328125,165.578125,-39.61328125,3.34375,102.5,168.921875,3,-1.26675513053365,-0.859725935372524,1.51621011203881,0.255517534326218,-0.403503698327202,1.24425443690875,1.0439428539526,0.405737008237967,1.15399716981414,0.937566320950578,1.26918476063864,-0.92376128907294,-0.00975106019573362,0.146124981026859,1.34401452118024,2
"63",10,10,"md",7.7,2.3,"COMPENSATE","PUNISH","CFD-WM-216-061-N.png",1.5,"COMPENSATE",2.2150379230734,5.24277500400785,39.3828125,35.26171875,2.20461675699335,1,122.1484375,115.21484375,1.97214356099721,1,187.8828125,142.76953125,1.43682559207082,1,82.765625,79.953125,65.734375,27.5546875,148.5,107.5078125,0.8,0.13936425149153,-0.778395816952516,0.385072718977181,0.483027433773679,0.365931438065683,1.00315444052814,0.610347523617023,0.994670016306696,0.961910681890812,0.599765593714323,0.36785420797973,-0.242319648467698,0.284263611305137,0.452909006273002,0.654834972506191,4
"64",10,11,"hi",9.4,0.6,"REVERSE","COMPENSATE","CFD-WM-206-045-N.png",2.4,"REVERSE",4.68589672702365,3.91737778601237,40.42578125,28.0546875,2.29083883704152,1,-154.91015625,-156.140625,2.72748219489586,1,177.67578125,155.20703125,2.03047254390549,1,-195.3359375,-184.1953125,332.5859375,311.34765625,137.25,127.15234375,-1.8,1.27765137027382,-0.0464247511724454,-0.951726018277471,0.493560664769425,0.24390910467692,-0.811029671851176,-2.31795957461565,0.906949446844028,1.11152011866866,-0.983159764994156,-2.41270120405955,1.48381050972528,3.73061080382043,0.377880304446499,0.875283003945053,6
"65",10,12,"lo",5.8,4.2,"REVERSE","COMPENSATE","CFD-WM-218-074-N.png",2.3,"COMPENSATE",3.22238931106403,5.41496279800776,39.2578125,32.375,1.99297350901179,1,173.25390625,157.16015625,1.41480233392213,1,180.4375,169.1875,1.49152847903315,1,133.99609375,124.78515625,7.18359375,12.02734375,141.1796875,136.8125,1.9,-1.13283899891221,-0.127754869592453,0.950641415507995,0.481765024066323,0.317056367944113,1.3377938689864,1.06299643059188,0.930684021130329,1.27968977137844,0.891364128414743,0.839778056194436,-0.621055558254193,0.0957014429902032,0.404088246820618,0.983687852174981,6
"66",10,13,"lo",5.1,4.9,"ACCEPT","REVERSE","CFD-WM-236-072-N.png",1.4,"ACCEPT",3.50620037096087,3.90899721300229,-45.66015625,-33.84765625,2.63545995403547,1,178.2578125,182.99609375,3.97305889904965,1,159.0390625,147.7421875,1.99052179697901,1,223.91796875,216.84375,-19.21875,-35.25390625,204.69921875,181.58984375,3.5,-1.60154545958727,-0.859725935372524,1.77328679228009,-0.375845120564913,-0.804160227145158,1.37055952731056,1.34180252769858,0.746783033944529,1.02172626386889,1.40319014967312,1.80883175758644,-0.791839200541664,-0.478476289156706,0.82771384418199,1.48617259752867,3
"67",10,14,"hi",9.1,0.9,"ACCEPT","PUNISH","CFD-WM-201-063-N.png",1.6,"PUNISH",2.50133506394923,8.64783456700388,-35.95703125,-14.296875,3.41440318105742,1,-116.63671875,-96.6015625,1.89818756596651,1,100.71875,-66.7734375,4.40034437796567,1,-80.6796875,-82.3046875,217.35546875,29.828125,136.67578125,-52.4765625,-0.7,1.07677717284165,-0.697065698532508,-0.386157321746657,-0.277850567031448,-0.473145712992984,-0.560414589680881,-1.67544936413784,0.245570595338468,-1.55866061744159,-0.330548236932645,-1.34015074167109,0.738441865867,0.311871958967852,0.374050714457438,-1.14048608050834,1
"68",10,15,"lo",5.1,4.9,"COMPENSATE","ACCEPT","CFD-WM-231-112-N.png",1.5,"COMPENSATE",2.57826684205793,3.79861259204336,45.91015625,-29.9765625,4.93048723100219,1,189.875,165.54296875,1.8228401140077,1,202.03515625,188.00390625,2.20562816702295,1,143.96484375,195.51953125,12.16015625,22.4609375,156.125,217.98046875,3.4,-1.60154545958727,-0.778395816952516,1.72187145623183,0.548948890679645,-0.738618691975367,1.44662905725284,1.15345876569786,1.11629712046408,1.50603042997107,0.948105223386567,1.58436262040738,-0.588864648315705,0.222405732693144,0.50376179306652,1.89454282240129,2
"69",10,16,"lo",5.9,4.1,"PUNISH","REVERSE","CFD-WM-252-224-N.png",2.4,"PUNISH",3.33885352301877,3.57257761899382,79.7734375,-42.21484375,5.59106943500228,1,169.16015625,177.62109375,1.91787121293601,1,177.62890625,148.046875,2.77589108899701,1,89.38671875,219.8359375,8.46875,-29.57421875,97.85546875,190.26171875,1.7,-1.06588093310148,-0.0464247511724454,0.847810743411483,0.8909435704629,-0.945825180055039,1.31098792837459,1.28379871916837,0.906546596926863,1.02539131916684,0.637452175210107,1.84032898401603,-0.612742521072275,-0.409502857023394,0.115149589890848,1.5834870993768,5
"70",10,17,"md",7.2,2.8,"REVERSE","COMPENSATE","CFD-WM-215-041-N.png",1.4,"COMPENSATE",2.40536084095947,5.8395278530661,55.75,-24.92578125,2.8637715911027,1,58.7421875,40.26171875,2.41307490493637,1,193.83984375,202.6015625,2.06215841695666,1,2.9921875,65.1875,135.09765625,162.33984375,138.08984375,227.52734375,1.4,-0.195426077562085,-0.859725935372524,0.693564735266716,0.648324204830529,-0.653103853454136,0.587969299296437,-0.19850209707897,1.04586552661308,1.68162416905362,0.145703430111427,0.212424030559534,0.206356951043863,1.92107810632572,0.383481405450908,2.00167644515663,6
"71",10,18,"md",7.5,2.5,"REVERSE","ACCEPT","CFD-WM-248-036-N.png",2.2,"REVERSE",4.74696530902293,6.02078279398847,35.4140625,-34.24609375,7.00739221996628,1,127.96484375,-26.47265625,3.26047580898739,1,198.4609375,215.8046875,1.45864879607689,1,92.55078125,7.7734375,70.49609375,242.27734375,163.046875,250.05078125,0.3,0.00544811987008378,-0.209084988012461,0.127996038735901,0.442945925565144,-0.810906177283723,1.04124036187449,-0.918659847754932,1.08557981428025,1.84044323196478,0.655461692031101,-0.391944421218784,-0.211518455991233,2.89182935472743,0.549925285995882,2.25443113779462,3
"72",10,19,"hi",9.1,0.9,"ACCEPT","REVERSE","CFD-WM-239-128-N.png",1.6,"REVERSE",1.95871079200879,3.58329184900504,75.31640625,-29.90234375,5.10793706297409,1,-99.98046875,-54.05859375,2.93174321891274,1,146.96875,123.84765625,2.52664170204662,1,-175.296875,-24.15625,246.94921875,177.90625,71.65234375,153.75,-0.7,1.07677717284165,-0.697065698532508,-0.386157321746657,0.845930774335008,-0.737362093420144,-0.451349197725978,-1.21635090577844,0.643049180274554,0.734301350310435,-0.869099491794526,-0.728051900116319,0.929869129363062,2.11011464487541,-0.0596047614467135,1.1737579783072,3
"73",10,20,"hi",8.9,1.1,"COMPENSATE","REVERSE","CFD-WM-211-054-N.png",1.5,"COMPENSATE",1.90417232899927,3.35119607590605,97.328125,-25.99609375,2.00984574703034,1,55.40234375,-26.95703125,2.5878405290423,1,221.18359375,211.48828125,1.85282210598234,1,-41.92578125,-0.9609375,165.78125,238.4453125,123.85546875,237.484375,-0.4,0.942861041220207,-0.778395816952516,-0.231911313601889,1.06823323373963,-0.671225327355773,0.566099948892722,-0.92388693515155,1.28086131162596,1.78852161524382,-0.10996500683254,-0.483886716645122,0.404833872210913,2.84529363469801,0.28854925633432,2.11341278083721,6
"74",10,21,"hi",9.5,0.5,"COMPENSATE","ACCEPT","CFD-WM-205-007-N.png",2.3,"COMPENSATE",1.68695717398077,6.59178956609685,72.12109375,-23.22265625,7.01147166499868,1,-135.921875,-57.05078125,1.96933760109823,1,215.4609375,220.4375,1.99672435002867,1,-208.04296875,-33.828125,351.3828125,277.48828125,143.33984375,243.66015625,-1.8,1.34460943608455,-0.127754869592453,-0.951726018277471,0.813660426190735,-0.62426822345007,-0.686694101895082,-1.24864081663174,1.23168005090541,1.89617086764899,-1.05548687390612,-0.829862778236003,1.60539815385715,3.31942668433518,0.418494799636609,2.18271648688311,2
"75",10,22,"hi",9.1,0.9,"PUNISH","COMPENSATE","CFD-WM-242-011-N.png",2.6,"COMPENSATE",1.58726432395633,4.38124275498558,119.609375,24.33984375,5.52727510500699,1,-161.98828125,-61.109375,2.37697284901515,1,193.0625,207.44140625,1.82565560296644,1,-281.59765625,-85.44921875,355.05078125,268.55078125,73.453125,183.1015625,-1.7,1.07677717284165,0.11623548566757,-0.900310682229215,1.29325776407573,0.181013040149703,-0.857377347794489,-1.29243875054373,1.03918493215342,1.7398421628249,-1.47415255506578,-1.37325161278835,1.62912442107241,3.21089077462334,-0.0475949588279574,1.5031368823103,4
"76",10,23,"hi",9.5,0.5,"COMPENSATE","PUNISH","CFD-WM-209-038-N.png",3.5,"COMPENSATE",3.46497392095625,6.95669937494677,115.69921875,57.56640625,4.77627324103378,1,-211.12890625,-133.7578125,1.69764820800629,1,196.08984375,176.02734375,2.32370572397485,1,-326.828125,-191.32421875,407.21875,309.78515625,80.390625,118.4609375,-3,1.34460943608455,0.848206551447641,-1.56871005085654,1.25376801041752,0.743572372293238,-1.17915094788658,-2.07641755217517,1.06520232263699,1.36196556402858,-1.73159970972047,-2.48774355162354,1.96657308844173,3.71163599443025,-0.00132725936828103,0.777749325290953,4
"77",10,24,"hi",9.6,0.4,"REVERSE","ACCEPT","CFD-WM-227-099-N.png",1.7,"REVERSE",1.94840571295936,3.94084317202214,42.43359375,-25.875,1.73151722201146,1,-166.34765625,-80.078125,2.55059569596779,1,213.53125,196.875,1.65997536596842,1,-208.78125,-54.203125,379.87890625,276.953125,171.09765625,222.75,-1.3,1.41156750189527,-0.6157355801125,-0.694649338036192,0.513838120693822,-0.669175087607778,-0.885922605163549,-1.49713823762418,1.21509606264879,1.61273992460753,-1.05968909449769,-1.04433997543805,1.78972522450179,3.31292781211905,0.603617700740472,1.94806579841777,3
"78",10,25,"md",7.8,2.2,"REVERSE","PUNISH","CFD-WM-232-070-N.png",1.7,"PUNISH",2.49068553291727,4.18498190504033,63.44921875,-25.56640625,1.1911227949895,1,123.38671875,31.62890625,2.74928789003752,1,128.75390625,81.125,2.04786028701346,1,59.9375,57.1953125,5.3671875,49.49609375,65.3046875,106.69140625,0.5,0.206322317302253,-0.6157355801125,0.230826710832413,0.726080752742952,-0.663950283088693,1.01126272599946,-0.291662283744498,0.48650841662954,0.220394814494048,0.469830264946556,0.128294363098761,-0.632804987705838,0.550717372166769,-0.101938664387014,0.645673382016884,5
"79",10,26,"lo",5.5,4.5,"COMPENSATE","ACCEPT","CFD-WM-210-057-N.png",1.4,"COMPENSATE",2.26414296706207,3.86087890807539,84.33203125,-25.33203125,1.52669488999527,1,160.51171875,120.57421875,2.236670985003,1,178.42578125,155.609375,3.22563334996812,1,76.1796875,145.90625,17.9140625,35.03515625,94.09375,180.94140625,3.1,-1.33371319634438,-0.859725935372524,1.56762544808706,0.936982074478018,-0.65998207712483,1.25435782101339,0.668182716424763,0.913395045518667,1.1163598711775,0.562279117960994,1.06210900045661,-0.551645487923717,0.375105511260634,0.0900618677176113,1.47889592757065,2
"80",10,27,"md",7.5,2.5,"PUNISH","ACCEPT","CFD-WM-247-084-N.png",1.7,"PUNISH",4.00020522694103,3.75934845104348,98.3125,23.49609375,4.69813318201341,1,107.421875,28.2734375,1.74686769105028,1,113.8515625,36.84765625,2.33193125098478,1,9.109375,4.77734375,6.4296875,8.57421875,15.5390625,13.3515625,0.8,0.00544811987008378,-0.6157355801125,0.385072718977181,1.07817471018505,0.166727498679799,0.90672467325094,-0.327872510145262,0.358435713797516,-0.312212900919571,0.180521829298683,-0.423482766742935,-0.625932203166381,0.0537671142379008,-0.433836463438972,-0.401772573686361,1
"81",10,28,"hi",9.9,0.0999999999999996,"COMPENSATE","ACCEPT","CFD-WM-238-020-N.png",2.5,"COMPENSATE",1.84872569597792,4.16864791302942,91.41015625,18.44140625,1.92147661198396,1,-213.2578125,-110.21875,1.50781146599911,1,198.375,211.1953125,1.71058876393363,1,-304.66796875,-128.66015625,411.6328125,321.4140625,106.96484375,192.75390625,-2.4,1.61244169932744,0.0349053672475626,-1.26021803456701,1.00846602415702,0.0811465233925041,-1.19309106013222,-1.82239796627179,1.08484125609878,1.78499752361118,-1.60546639005935,-1.82811103676248,1.99512546538874,3.85285601331668,0.175901997064252,1.61145405981784,2
"82",10,29,"md",7.4,2.6,"COMPENSATE","ACCEPT","CFD-WM-254-152-N.png",1.4,"COMPENSATE",1.92948126501869,5.75261998095084,58.39453125,-59.97265625,2.99578885699157,1,73.16015625,19.7265625,2.09821014699992,1,193.46484375,166.33984375,1.92922320996877,1,14.765625,79.69921875,120.3046875,146.61328125,135.0703125,226.3125,1.2,-0.061509945940639,-0.859725935372524,0.590734063170204,0.675032060201768,-1.24648291858367,0.68237838975271,-0.420105310337196,1.04264272727576,1.24543560070914,0.212716619862633,0.365181466833616,0.11066858688605,1.73009664981354,0.363343493467614,1.98804364782565,2
"83",10,30,"md",7.6,2.4,"PUNISH","ACCEPT","CFD-WM-235-147-N.png",1.6,"ACCEPT",2.78094091499224,5.86149839998689,74.8359375,21.55859375,2.5951957970392,1,115.63671875,89.54296875,2.13196934899315,1,117.29296875,72.38671875,1.35857323103119,1,40.80078125,67.984375,1.65625,-17.15625,42.45703125,50.828125,0.8,0.0724061856808066,-0.697065698532508,0.385072718977181,0.841078387022361,0.133923662711872,0.960515601787798,0.333311891596278,0.388011611882709,0.115282908064382,0.360906039136617,0.241865302261349,-0.656809198413502,-0.258700559394922,-0.254314663339518,0.0187838815978799,1
"84",10,31,"lo",5.8,4.2,"PUNISH","COMPENSATE","CFD-WM-220-068-N.png",1.5,"COMPENSATE",2.62411969003733,4.02125655498821,53.90625,-58.2109375,2.18862348608673,1,153.5,129.421875,1.64899563603103,1,174.69921875,200.10546875,1.61266171408352,1,99.59375,187.6328125,21.19921875,70.68359375,120.79296875,258.31640625,2.7,-1.13283899891221,-0.778395816952516,1.36196410389404,0.629703661647037,-1.21665523708864,1.20844497425939,0.763661369274274,0.881368477104053,1.65159890834349,0.695549542436352,1.5013431684996,-0.53039544454988,0.808015787497638,0.268124776392661,2.3471867620787,4
"85",10,32,"lo",5.9,4.1,"REVERSE","ACCEPT","CFD-WM-253-119-N.png",1.3,"ACCEPT",2.83498673990835,4.51085236307699,65.97265625,46.4140625,5.59768876805902,1,137.66796875,145.09765625,1.71133002697024,1,146.70703125,130.93359375,2.42198509199079,1,71.6953125,98.68359375,9.0390625,-14.1640625,80.734375,84.51953125,2.8,-1.06588093310148,-0.941056053792532,1.4133794399423,0.75156564871019,0.55475190517946,1.1047765798895,0.93282509284385,0.640799934903716,0.819537379931988,0.536754518812227,0.565020266373868,-0.609053452900361,-0.222363799412724,0.000965284298639874,0.396863871886245,3
"86",10,33,"hi",9.9,0.0999999999999996,"PUNISH","ACCEPT","CFD-WM-225-127-N.png",1.4,"PUNISH",2.87875894503668,5.01860988489352,80.4609375,-39.99609375,2.30213402200025,1,-188.953125,-111.19921875,2.64921596704517,1,27.75,36.05859375,2.11366657097824,1,-269.4140625,-71.203125,216.703125,147.2578125,-52.7109375,76.0546875,-1.3,1.61244169932744,-0.859725935372524,-0.694649338036192,0.897886823853355,-0.908259496930477,-1.03394357684343,-1.83297860285688,-0.38153244238164,-0.321704454383493,-1.40480479831926,-1.22329027494405,0.734222178300495,1.73792375868699,-0.889010587853086,0.301872644181331,1
"87",10,34,"md",7.6,2.4,"REVERSE","PUNISH","CFD-WM-240-125-N.png",1.4,"REVERSE",2.87276743398979,6.47923645807896,41.66015625,-27.5078125,1.5354112170171,1,116.1171875,30.09375,1.40974854805972,1,165.32421875,128.6953125,1.34983576601371,1,74.45703125,57.6015625,49.20703125,98.6015625,123.6640625,156.203125,1,0.0724061856808066,-0.859725935372524,0.487903391073692,0.50602696062956,-0.696820255822685,0.96366171886342,-0.308228778477327,0.800798493671063,0.792613319858587,0.552473936580675,0.132570748932545,-0.349226822682566,1.14704819427672,0.287272726337966,1.20128658513631,5
"88",10,35,"lo",6,4,"ACCEPT","REVERSE","CFD-WM-222-057-N.png",2.3,"ACCEPT",2.83755368401762,6.82664137997199,67.53125,30.609375,1.76396907493472,1,156.5546875,90.02734375,1.24670121807139,1,132.51171875,86.46484375,1.58399971702602,1,89.0234375,59.41796875,-24.04296875,-3.5625,64.98046875,55.85546875,1.7,-0.998922867290762,-0.127754869592453,0.847810743411483,0.767306319748778,0.287162549683018,1.22844711696782,0.338538978992895,0.518803551655597,0.284627257985042,0.6353844158714,0.151691127900902,-0.823044674461627,-0.0936197177003383,-0.104100949891042,0.0751999914530829,3
"89",10,36,"lo",5.9,4.1,"COMPENSATE","REVERSE","CFD-WM-249-239-N.png",2.5,"COMPENSATE",2.03815531893633,3.13924572302494,68.8125,21.77734375,1.51953224500176,1,136.61328125,116.35546875,1.82901987200603,1,165.52734375,174.99609375,3.85668836196419,1,67.80078125,94.578125,28.9140625,58.640625,96.71484375,153.21875,1.6,-1.06588093310148,0.0349053672475626,0.796395407363227,0.780246019249171,0.137627321611476,1.09787046923569,0.622656471357446,0.802544176645444,1.34956076148167,0.514587249342435,0.521804097995924,-0.480491953868158,0.66176744412281,0.107542513177883,1.16779636918497,6
"90",10,37,"hi",9.3,0.699999999999999,"REVERSE","PUNISH","CFD-WM-241-072-N.png",1.5,"REVERSE",1.66856440098491,3.53891160490457,37.85546875,-40.05078125,3.99403208703734,1,-81.9453125,-72.890625,1.38477311795577,1,182.19140625,196.89453125,1.77503476396669,1,-119.80078125,-32.83984375,264.13671875,269.78515625,144.3359375,236.9453125,-0.800000000000001,1.2106933044631,-0.778395816952516,-0.437572657794913,0.467602365161929,-0.909185411655378,-0.333254705545915,-1.41957500528727,0.945757322197585,1.61297486404971,-0.553221460342839,-0.819459647313434,1.04104652632487,3.22588087404159,0.425137965944164,2.1073635009926,5
"91",10,38,"hi",9.8,0.199999999999999,"ACCEPT","REVERSE","CFD-WM-257-161-N.png",2.5,"REVERSE",2.77996301290113,3.27071724599227,65.76953125,40.56640625,3.01398474595044,1,-187.66796875,-134.04296875,3.0952090700157,1,153.7421875,184.05078125,1.6884722460527,1,-253.4375,-174.609375,341.41015625,318.09375,87.97265625,143.484375,-2.3,1.54548363351671,0.0349053672475626,-1.20880269851875,0.749514232935737,0.455745166381098,-1.02552835312083,-2.07949478911027,0.70126099330489,1.45847868687459,-1.31386785535893,-2.31179494602009,1.54088999602908,3.81253454336254,0.0492389594668721,1.05855864909238,3
"92",10,39,"lo",5.2,4.8,"COMPENSATE","REVERSE","CFD-WM-251-002-N.png",1.6,"COMPENSATE",2.44404873391613,5.2229078609962,38.17578125,-33.7265625,2.96194081602152,1,153.12890625,130.4453125,1.5460792479571,1,163.6484375,129.54296875,1.43560162198264,1,114.953125,164.171875,10.51953125,-0.90234375,125.47265625,163.26953125,3.2,-1.53458739377655,-0.697065698532508,1.61904078413532,0.470837290037028,-0.802109987397162,1.20601504643676,0.77470569909616,0.786396609132416,0.802809691649037,0.782973517918018,1.25438188659863,-0.599477036207514,-0.0613151047135534,0.29933463222188,1.28058475353418,6
"93",10,40,"md",7.7,2.3,"ACCEPT","COMPENSATE","CFD-WM-207-048-N.png",3.3,"COMPENSATE",1.88239249296021,1.84790505701676,87.11328125,49.47265625,2.69031692505814,1,45.12109375,22.89453125,1.78112303605303,1,134.6484375,144.40234375,1.96224134601653,1,-41.9921875,-26.578125,89.52734375,121.5078125,47.53515625,94.9296875,-1,0.13936425149153,0.685546314607625,-0.540403329891424,0.965070690466676,0.606536993007862,0.498778159111928,-0.385918472606091,0.537166793713033,0.981551619256749,-0.110342984346067,-0.753545738740795,-0.0884147564462464,1.42521889993678,-0.220447540987278,0.513685109465201,2
"94",10,41,"lo",6.1,3.9,"ACCEPT","PUNISH","CFD-WM-224-197-N.png",1.6,"PUNISH",2.27677534101531,1.71650248591322,65.42578125,26.44140625,1.69457044801675,1,148.98046875,128.01171875,2.0361100230366,1,96.5234375,70.6875,1.52243547490798,1,83.5546875,101.5703125,-52.45703125,-57.32421875,31.09765625,44.24609375,2.3,-0.931964801480039,-0.697065698532508,1.15630275970102,0.74604260624051,0.216594620292335,1.17885101119846,0.748443800321217,0.209515527752205,0.0948431765950457,0.604256855933879,0.595407277250462,-1.00684112571167,-0.746495471793028,-0.330072810878223,-0.055078702012079,1
"95",10,42,"hi",9.7,0.300000000000001,"ACCEPT","COMPENSATE","CFD-WM-214-026-N.png",3.4,"COMPENSATE",2.30666620307602,3.16723856504541,97.375,79.12890625,3.71534304507077,1,-186.17578125,-178.12890625,1.70185882702935,1,222.0859375,222.98828125,3.33976653497666,1,-283.55078125,-257.2578125,408.26171875,401.1171875,124.7109375,143.859375,-3.1,1.47852556770599,0.766876433027633,-1.6201253869048,1.06870663737989,1.10864732096856,-1.01575748545508,-2.55524405006373,1.28861617253139,1.92685395879721,-1.48526954075775,-3.18179274862764,1.97331953503009,4.82076104030987,0.294254563869044,1.06276684376689,2
"96",10,43,"lo",5.7,4.3,"ACCEPT","PUNISH","CFD-WM-223-056-N.png",1.4,"ACCEPT",2.17833587003406,4.95473130699247,94.6796875,82.8046875,2.55446392099839,1,152.75,158.6171875,1.57701290899422,1,195.84765625,186.8125,1.85755664505996,1,58.0703125,75.8125,43.09765625,28.1953125,101.16796875,104.0078125,2.9,-1.19979706472293,-0.859725935372524,1.46479477599055,1.04148592806503,1.17088201783513,1.20353396223891,1.07871984671235,1.06312093139831,1.49169912399832,0.459202426625031,0.324267967750786,-0.388745333784446,0.292043283155112,0.13724137431754,0.615558488877393,1
"97",10,44,"lo",5.8,4.2,"PUNISH","COMPENSATE","CFD-WM-233-106-N.png",1.3,"COMPENSATE",2.05490408709738,3.39827136299573,42.0703125,-28.54296875,1.53807391901501,1,158.18359375,132.34765625,3.53407371405046,1,150.953125,143.80859375,2.91347435105126,1,116.11328125,160.890625,-7.23046875,11.4609375,108.8828125,172.3515625,2.9,-1.13283899891221,-0.941056053792532,1.46479477599055,0.51016924248182,-0.714346498829743,1.23911322119981,0.795234663307071,0.677291423233575,0.97440946021459,0.789577007419049,1.21984184717192,-0.714292966160802,0.0888230745862622,0.188693348660367,1.38250196830757,4
"98",10,45,"md",7.3,2.7,"REVERSE","COMPENSATE","CFD-WM-237-052-N.png",1.4,"COMPENSATE",1.71173557289876,4.19340105401352,42.83203125,-22.8828125,1.47128807404079,1,99.59375,32.2421875,2.6024511429714,1,164.63671875,149.71484375,1.57301065907814,1,56.76171875,55.125,65.04296875,117.47265625,121.8046875,172.59765625,1.3,-0.128468011751362,-0.859725935372524,0.64214939921846,0.517862051636017,-0.61851432480247,0.855465985287144,-0.28504411663749,0.79489002821931,1.0454551475287,0.45175404621141,0.106501242984289,-0.246792011936389,1.37621645468664,0.27487214923053,1.38526359606272,6
"99",10,46,"md",7.6,2.4,"PUNISH","COMPENSATE","CFD-WM-244-003-N.png",2.2,"COMPENSATE",2.01169590698555,3.55961034796201,56.94140625,23.89453125,1.73546924395487,1,85.58203125,32.7890625,2.29364319890738,1,179.92578125,175.625,1.17535270098597,1,28.640625,8.89453125,94.34375,142.8359375,122.984375,151.73046875,0.2,0.0724061856808066,-0.209084988012461,0.0765807026876456,0.660356547353761,0.173473448818365,0.763717026341967,-0.279142566350986,0.926286242867945,1.35712581151974,0.291691686218401,-0.380143241081324,-0.0572598177067209,1.68422504811277,0.282739742269282,1.15109509657049,4
"100",10,47,"md",7.3,2.7,"PUNISH","ACCEPT","CFD-WM-221-091-N.png",1.6,"PUNISH",3.84914214001037,2.67080027796328,61.6328125,-31.796875,2.50837542698719,1,110.30859375,26.4453125,2.01777452800889,1,123.99609375,46.38671875,2.16633251402527,1,48.67578125,58.2421875,13.6875,19.94140625,62.36328125,78.18359375,1.1,-0.128468011751362,-0.697065698532508,0.539318727121948,0.707736361682944,-0.769438424961363,0.92562695389228,-0.347600549674433,0.445619150037297,-0.197468477360678,0.405729725446647,0.139314280439664,-0.578985020540235,0.191808852551475,-0.121555543718735,0.325762916031436,1
"101",10,48,"hi",9.5,0.5,"PUNISH","COMPENSATE","CFD-WM-228-065-N.png",1.3,"COMPENSATE",2.54163015796803,3.79079976398498,59.359375,36.85546875,6.20791209593881,1,-205.30078125,-139.51953125,1.56314114795532,1,154.5,172.09765625,5.02866502397228,1,-264.66015625,-176.375,359.80078125,311.6171875,95.140625,135.2421875,-0.8,1.34460943608455,-0.941056053792532,-0.437572657794913,0.684776285130417,0.392915238619946,-1.14098829197741,-2.13859459983655,0.70777373363239,1.31469574826271,-1.377746055145,-2.33038077675923,1.65984981077822,3.73388395844024,0.0970437052486886,0.966066036975454,4
"102",10,49,"md",8,2,"PUNISH","REVERSE","CFD-WM-229-129-N.png",1.4,"REVERSE",2.62332305999007,3.14305360906292,103.90234375,137.6015625,3.60990162496455,1,152.7890625,184.51953125,5.47469383093994,1,180.140625,213.21875,1.71468675206415,1,48.88671875,46.91796875,27.3515625,28.69921875,76.23828125,75.6171875,0.6,0.340238448923699,-0.859725935372524,0.282242046880669,1.13462809428585,2.09864857218612,1.20378974411497,1.35824256063955,0.928132638321618,1.80933724982064,0.40693035990138,0.0201100253229582,-0.490598989955595,0.298162659183446,-0.0290201447993824,0.296963083727731,5
"103",10,50,"md",7.6,2.4,"REVERSE","ACCEPT","CFD-WM-230-131-N.png",3.4,"REVERSE",3.28891909099184,2.27570511796512,76.296875,94.50390625,1.6170394270448,1,46.609375,47.1484375,2.79749270703178,1,136.02734375,157.84765625,1.75181221601088,1,-29.6875,-47.35546875,89.41796875,110.69921875,59.73046875,63.34375,-1,0.0724061856808066,0.766876433027633,-0.540403329891424,0.855832800477077,1.36896163219792,0.508523448590075,-0.124184717399638,0.549017295442968,1.1432839312509,-0.040305974486645,-0.972258202682071,-0.089122248972367,1.2939606559802,-0.139114344076743,0.159232378859784,3
"104",10,51,"hi",8.8,1.2,"COMPENSATE","REVERSE","CFD-WM-250-157-N.png",2.4,"REVERSE",3.48410642996896,3.45309752901085,47.78125,26.9765625,5.80558961397037,1,-19.03125,-16.10546875,2.20774242503103,1,133.86328125,170.99609375,1.88996874098666,1,-66.8125,-43.08203125,152.89453125,187.1015625,86.08203125,144.01953125,-1.2,0.875902975409484,-0.0464247511724454,-0.643234001987936,0.567845585986621,0.225655357243153,0.078707584047347,-0.806783315895063,0.53041905760052,1.30144516372397,-0.251617638519645,-0.927273913238237,0.321476092079774,2.22178139813663,0.0366299692988071,1.0645640935758,6
"105",10,52,"md",7.3,2.7,"COMPENSATE","PUNISH","CFD-WM-204-031-N.png",2.4,"COMPENSATE",3.80706818099134,3.81981036497746,90.9453125,66.234375,3.68425817100797,1,123.71875,111.9375,2.09254659304861,1,119.41015625,161.140625,1.68564416700974,1,32.7734375,45.703125,-4.30859375,49.203125,28.46484375,94.90625,0.3,-0.128468011751362,-0.0464247511724454,0.127996038735902,1.00377143805779,0.890329856190076,1.01343687194603,0.574980375828617,0.406206999807993,1.18289472120182,0.315215227942613,0.00732198691616431,-0.695392808677294,0.54715959540611,-0.347631611236231,0.513422097298044,4
"106",10,53,"md",7.4,2.6,"REVERSE","COMPENSATE","CFD-WM-245-123-N.png",1.6,"COMPENSATE",2.92042699700687,4.59887628105935,96.92578125,-50.2890625,2.90619977703318,1,123.046875,21.26171875,4.57070931210183,1,189.20703125,190.55859375,1.57920789695345,1,26.12109375,71.55078125,66.16015625,169.296875,92.28125,240.84765625,1,-0.061509945940639,-0.697065698532508,0.487903391073692,1.06416985249408,-1.08252987551009,1.00903742367768,-0.403538815604367,1.00605052646661,1.53676050900773,0.277350774675757,0.279407035590619,-0.239565481133871,2.0055634451355,0.0779739102011193,2.15115502682426,6
"107",10,54,"lo",5.4,4.6,"REVERSE","PUNISH","CFD-WM-212-097-N.png",1.5,"PUNISH",2.35474099696148,5.60230134997983,73.609375,-25.0234375,1.86572681798134,1,140.40625,132.9609375,1.58369412599131,1,151.64453125,184.8515625,1.15577759896405,1,66.796875,157.984375,11.23828125,51.890625,78.03515625,209.875,3.1,-1.4006712621551,-0.778395816952516,1.56762544808706,0.828690991768935,-0.654757272605745,1.12270688940178,0.801852830414079,0.683233459511758,1.46811120400382,0.508873118696761,1.18924924082254,-0.594827799607293,0.579796267557223,-0.0170363938132049,1.80358444792612,5
"108",11,1,"md",7.6,2.4,"COMPENSATE","PUNISH","CFD-WM-239-128-N.png",3.5,"COMPENSATE",3.34112166997511,2.98241394700017,134.48828125,132.92578125,4.48139263002668,1,-40.32421875,0.00390625,5.07980659697205,1,220.6171875,135.296875,4.93692184891552,1,-174.8125,-132.921875,260.94140625,135.29296875,86.12890625,2.37109375,-1.1,0.0724061856808066,0.848206551447641,-0.59181866593968,1.44352396955438,2.01948286320707,-0.0607191165966907,-0.632940506026902,1.27599354179355,0.872022851314168,-0.866342479342917,-1.87297196892265,1.02037763752606,1.59262415578167,0.0369425888897509,-0.524993773999473,4
"109",11,2,"lo",5.2,4.8,"PUNISH","COMPENSATE","CFD-WM-245-123-N.png",3,"COMPENSATE",3.17312463501003,3.81202029809356,72.05078125,80.609375,5.04073925304692,1,250,116.52734375,6.22963993996382,1,232.15625,129.2734375,3.05990569398273,1,177.94921875,35.91796875,-17.84375,12.74609375,160.10546875,48.6640625,1.8,-1.53458739377655,0.441555959347602,0.899226079459739,0.812950320730348,1.13371315530696,1.84032852089493,0.624511244304633,1.37516176306899,0.799567527347005,1.14154077442688,-0.0956813449456323,-0.78294500878472,0.104429855309687,0.530308406664161,-0.00550090850296118,4
"110",11,3,"hi",8.7,1.3,"ACCEPT","REVERSE","CFD-WM-229-129-N.png",2.5,"REVERSE",2.1248823920032,3.38823366491124,3.01171875,25.41796875,6.74274358409457,1,-229.91796875,-135.37109375,6.31776892300695,1,250,129.00390625,3.69262144691311,1,-232.9296875,-160.7890625,479.91796875,264.375,246.98828125,103.5859375,-1.2,0.80894490959876,0.0349053672475626,-0.643234001987936,0.115705659236605,0.19926678758347,-1.30218203027473,-2.09382712552035,1.52851329820312,0.796325363044972,-1.19713950559323,-2.16631558948235,2.43682820999997,3.16018059652808,1.10974881847842,0.610824269868565,3
"111",11,4,"hi",9,1,"ACCEPT","REVERSE","CFD-WM-249-239-N.png",2.8,"REVERSE",2.58376288495492,3.86201006104238,14.52734375,27.265625,5.28735293494537,1,-248.953125,19.4140625,9.42576242191717,1,230.1484375,95.921875,4.06286625901703,1,-263.48046875,-7.8515625,479.1015625,76.5078125,215.62109375,68.65625,-1.8,1.00981910703093,0.278895722507586,-0.951726018277471,0.232005153526724,0.230549477931917,-1.42682453848211,-0.423477624786627,1.35790635828376,0.398384935886795,-1.37103139578705,-0.556420799441213,2.43154728364428,0.878744389499541,0.900554208871887,0.218848470082065,3
"112",11,5,"hi",9.4,0.6,"PUNISH","ACCEPT","CFD-WM-251-002-N.png",3.3,"PUNISH",4.49688781797886,3.10492564504966,57.6328125,39.35546875,6.13227342802566,1,-248.60546875,115.953125,6.17381190799642,1,2.9765625,128.41015625,4.02830623497721,1,-306.23828125,76.59765625,251.58203125,12.45703125,-54.65625,89.0546875,-2.7,1.27765137027382,0.685546314607625,-1.41446404271177,0.66733925104757,0.435242768901143,-1.42454807978511,0.618314616503804,-0.594438623603317,0.789183204002813,-1.6144044465557,0.332532905756463,0.959836491362314,0.100919515572503,-0.901984300877252,0.447756726231149,1
"113",11,6,"md",7.5,2.5,"ACCEPT","REVERSE","CFD-WM-217-070-N.png",2.5,"REVERSE",2.31423605594318,4.33889074600302,-1.8984375,23.48828125,8.47589094098657,1,-76.40625,-12.453125,6.00031073205173,1,222.36328125,98.3828125,2.96080506802537,1,-74.5078125,-35.94140625,298.76953125,110.8359375,224.26171875,74.89453125,0,0.00544811987008378,0.0349053672475626,-0.0262499694088659,0.0661166279195498,0.166595225147671,-0.296984835519636,-0.76736939076734,1.29099970120795,0.427987305601006,-0.295418562146014,-0.852108208390586,1.26506898120292,1.29562095180184,0.958180420135853,0.288853541907053,3
"114",11,7,"md",7.9,2.1,"ACCEPT","PUNISH","CFD-WM-238-020-N.png",3,"PUNISH",4.11830063001253,4.02149608905893,35.91796875,51.33203125,4.59552679606713,1,-106.44921875,16.81640625,7.01620821293909,1,15.4765625,47.70703125,4.92203340202104,1,-142.3671875,-34.515625,121.92578125,30.890625,-20.44140625,-3.625,-0.9,0.273280383112976,0.441555959347602,-0.488987993843168,0.44803501469792,0.638018093654503,-0.493706676402647,-0.451509988647521,-0.487011979025996,-0.181586571069561,-0.681667113027882,-0.83709973887779,0.121154636826766,0.324774829353176,-0.673798051120886,-0.592281053430504,1
"115",11,8,"lo",5.4,4.6,"COMPENSATE","ACCEPT","CFD-WM-255-219-N.png",3.7,"COMPENSATE",8.29550491995178,4.01219309004955,54.22265625,44.69921875,4.7580943859648,1,200.78125,58.484375,7.17380928597413,1,200.1015625,44.25,2.68197627400514,1,146.55859375,13.78515625,-0.6796875,-14.234375,145.87890625,-0.44921875,0.899999999999999,-1.4006712621551,1.01086678828766,0.436488055025436,0.63289913621878,0.525717864877202,1.5180433570507,-0.00185401074653289,1.09967956138103,-0.223170852334762,0.962868580385505,-0.328662134697704,-0.671919217364221,-0.223217665835282,0.43542836081273,-0.556642904780714,2
"116",11,9,"md",7.1,2.9,"PUNISH","ACCEPT","CFD-WM-254-152-N.png",2,"PUNISH",3.07026050996501,3.65660659095738,1.5625,28.5,5.0920781820314,1,-94.453125,63.5859375,6.31453879002947,1,10.69921875,48.09765625,4.43537179497071,1,-96.015625,35.0859375,105.15234375,-15.48828125,9.13671875,19.59765625,0.9,-0.262384143372809,-0.371745224852477,0.436488055025437,0.101069596691953,0.251448696008258,-0.415156062262519,0.053199022640426,-0.528069099750391,-0.176887782226036,-0.417838808586007,-0.104439712085977,0.0126556044281267,-0.238444950370903,-0.476535089235374,-0.331679831138987,1
"117",11,10,"md",7.4,2.6,"COMPENSATE","PUNISH","CFD-WM-241-072-N.png",2.8,"PUNISH",4.06372917408589,4.18173095502425,10.71484375,126.05078125,7.25022713502403,1,-34.11328125,94.73046875,4.49722176208161,1,14.13671875,98.74609375,3.44905876799021,1,-44.828125,-31.3203125,48.25,4.015625,3.421875,-27.3046875,-0.2,-0.061509945940639,0.278895722507586,-0.129080641505377,0.193501657452383,1.90308215493378,-0.0200497983020622,0.38929231145683,-0.498526772491628,0.432357179225485,-0.12648484757081,-0.803464319531303,-0.355417382286121,-0.00159189215795533,-0.514648627697934,-0.858011012981585,4
"118",11,11,"lo",5.6,4.4,"PUNISH","REVERSE","CFD-WM-227-099-N.png",3.2,"REVERSE",5.64270661200862,2.7082799449563,76.24609375,18.7734375,6.86579187505413,1,159.08984375,69.84765625,4.51098377804738,1,107.07421875,41.78125,4.55092463002075,1,82.84375,51.07421875,-52.015625,-28.06640625,30.828125,23.0078125,1.2,-1.26675513053365,0.604216196187618,0.590734063170204,0.855319946533464,0.0867681485079756,1.24504736072456,0.120771773420897,0.30019032994075,-0.252867197825844,0.600210273142002,0.0638607419301245,-1.00398588801697,-0.391192165961869,-0.331870373526149,-0.293411560817626,5
"119",11,12,"hi",9.4,0.6,"PUNISH","COMPENSATE","CFD-WM-200-034-N.png",2,"COMPENSATE",3.01456450205296,4.69882958591916,13.40234375,26.6328125,5.90077111497521,1,-245.2890625,181.50390625,6.07632855791599,1,105.40234375,179.6015625,5.71765540505294,1,-258.69140625,154.87109375,350.69140625,-1.90234375,92,152.96875,-1.4,1.27765137027382,-0.371745224852477,-0.746064674084447,0.220643466160525,0.219835321829489,-1.40283219850704,1.32569972620255,0.285822016228533,1.40495948194683,-1.34377254687034,1.15647732246172,1.60092579038846,-0.0734589827232699,0.0760981926554567,1.16499090606862,4
"120",11,13,"lo",6,4,"ACCEPT","REVERSE","CFD-WM-242-011-N.png",3.1,"REVERSE",2.70509324700106,3.90557942097075,29.84375,85.796875,7.09737792704254,1,-2.48046875,120.51171875,6.92008835589513,1,17.3828125,150.06640625,3.23162024293561,1,-32.32421875,34.71484375,19.86328125,29.5546875,-12.4609375,64.26953125,0.9,-0.998922867290762,0.52288607776761,0.436488055025437,0.386689792981118,1.22154278064044,0.18708236493687,0.667508253534877,-0.470629415727955,1.04968405748787,-0.0553139051708069,-0.108346026068759,-0.539036960404639,0.308551367324571,-0.620574565762711,0.16962135946249,3
"121",11,14,"lo",5.8,4.2,"COMPENSATE","PUNISH","CFD-WM-216-061-N.png",1.6,"COMPENSATE",2.84554801299237,4.30285777396057,0.65234375,108.5390625,7.04417817096692,1,245.265625,133.4921875,5.07117687806021,1,243.9453125,107.7578125,3.96338602202013,1,244.61328125,24.953125,-1.3203125,-25.734375,243.29296875,-0.78125,2.6,-1.13283899891221,-0.697065698532508,1.31054876784579,0.0918776760102715,1.60659103266721,1.80932775751563,0.807585764978111,1.47647851723598,0.540758237845618,1.52098573006526,-0.211102643363222,-0.67606310216007,-0.362872262947022,1.08510397405902,-0.560368910482106,4
"122",11,15,"lo",5.8,4.2,"PUNISH","ACCEPT","CFD-WM-250-157-N.png",2,"ACCEPT",4.55487923801411,6.0623899489874,20.43359375,48.0078125,2.65949386602733,1,245.46875,98.4765625,4.2752925780369,1,239.5,27.75,3.78264552901965,1,225.03515625,50.46875,-5.96875,-70.7265625,219.06640625,-20.2578125,2.2,-1.13283899891221,-0.371745224852477,1.10488742365276,0.291654012199267,0.581735705733723,1.81065782327117,0.429717930919382,1.43827491675817,-0.421647693085281,1.40954906548893,0.0574872822740054,-0.706131534520196,-0.909251899337314,0.923531748806253,-0.778932021389676,1
"123",11,16,"hi",9.1,0.9,"ACCEPT","REVERSE","CFD-WM-224-197-N.png",2.2,"REVERSE",2.18110274500214,3.92663411807735,26.77734375,22.64453125,6.34913258289453,1,-213.5703125,92.515625,6.12560996203683,1,178.1796875,56.3359375,4.73850707802922,1,-240.34765625,69.87109375,391.75,-36.1796875,151.40234375,33.69140625,-1.3,1.07677717284165,-0.209084988012461,-0.694649338036192,0.355721304847555,0.152309683677767,-1.19513731514076,0.365391032796489,0.911280083453551,-0.0777903255160823,-1.23936181725134,0.261725824931707,1.8665134311761,-0.489718863720389,0.472265369278936,-0.17352184795517,3
"124",11,17,"hi",9.5,0.5,"PUNISH","ACCEPT","CFD-WM-235-147-N.png",2.8,"PUNISH",2.96340322599281,3.86704685096629,53.7109375,60.6171875,5.14035804499872,1,-219.9765625,48.0546875,5.78684794704895,1,-1.94140625,124.56640625,3.49522531591356,1,-273.6875,-12.5625,218.03515625,76.51171875,-55.65234375,63.94921875,-2.3,1.34460943608455,0.278895722507586,-1.20880269851875,0.627731146479294,0.795225186589511,-1.23708554281572,-0.114405005496288,-0.636704294079206,0.742947121782522,-1.4291287630133,-0.606010427475276,0.742838426565035,0.878791826523017,-0.908627467184807,0.166026859844676,1
"125",11,18,"md",7.5,2.5,"PUNISH","REVERSE","CFD-WM-218-074-N.png",3.5,"REVERSE",5.10095533798449,5.27553233900107,22.4375,32.640625,6.26737271191087,1,-110.18359375,46.40625,4.43983321392443,1,102.98828125,73.03125,4.07687051198445,1,-132.62109375,13.765625,213.171875,26.625,80.55078125,40.390625,-1,0.00544811987008378,0.848206551447641,-0.540403329891424,0.311892017820309,0.32155366803649,-0.518159423754638,-0.132193964217036,0.265075245494538,0.123035909656199,-0.626193354424942,-0.328867730170482,0.711380276742887,0.272973599717979,-0.000259142432556517,-0.0983442035094258,5
"126",11,19,"lo",5.3,4.7,"COMPENSATE","REVERSE","CFD-WM-214-026-N.png",3.8,"COMPENSATE",2.42631031805649,4.63945474300999,115.515625,96.875,3.51477833103854,1,250,167,4.22239102702588,1,250,148.52734375,3.19746744900476,1,134.484375,70.125,0,-18.47265625,134.484375,51.65234375,0.9,-1.46762932796582,1.09219690670766,0.436488055025437,1.25191384615984,1.409106649199,1.84032852089493,1.16918218181834,1.52851329820312,1.03117082944438,0.894143374837736,0.264398566077822,-0.667522656666186,-0.274686836306151,0.359435748580817,0.0280331428095721,6
"127",11,20,"md",7.8,2.2,"ACCEPT","REVERSE","CFD-WM-258-125-N.png",2.1,"REVERSE",2.32111289398745,2.32636254804675,25.19921875,42.91796875,3.75455565901939,1,-125.55859375,16.37890625,5.49011828901712,1,18.46484375,73.25,4.45720828708727,1,-150.7578125,-26.5390625,144.0234375,56.87109375,-6.734375,30.33203125,0.1,0.206322317302253,-0.290415106432469,0.0251653666393899,0.339783382292193,0.495559499551849,-0.618835170174548,-0.456231228876725,-0.46133029680673,0.125667231408573,-0.729425683560592,-0.753134547795239,0.264093394693348,0.640278472488429,-0.582382872402415,-0.211220258581025,3
"128",11,21,"hi",9.1,0.9,"COMPENSATE","REVERSE","CFD-WM-223-056-N.png",2.3,"REVERSE",6.88084243994672,5.28550267301034,47.92578125,49.15234375,3.86219175101724,1,-223.671875,111.44921875,4.95797462004703,1,140.9375,94.671875,3.99732968292665,1,-271.59765625,62.296875,364.609375,-16.77734375,93.01171875,45.51953125,-1.4,1.07677717284165,-0.127754869592453,-0.746064674084447,0.569305247210751,0.601113778190584,-1.26128250829164,0.569711134501381,0.591215824265997,0.383348811587513,-1.41723358832289,0.181995900588385,1.69095421433731,-0.254099168117803,0.0828455654933262,-0.0407883742632086,6
"129",11,23,"hi",9.6,0.4,"PUNISH","REVERSE","CFD-WM-232-070-N.png",2.5,"REVERSE",2.88027192698792,2.36488604894839,4.734375,17.93359375,2.80972774105612,1,-245.87890625,110.92578125,3.2773092740681,1,201.7578125,68.73046875,4.22485255799256,1,-250.61328125,92.9921875,447.63671875,-42.1953125,197.0234375,50.796875,-2.1,1.41156750189527,0.0349053672475626,-1.10597202642224,0.133103243016097,0.072548743804136,-1.40669450483565,0.564062507798585,1.11391359178752,0.0713022444889828,-1.29779269404834,0.505109745606348,2.22801684443351,-0.56277187987259,0.77652238616495,0.0184331987083371,5
"130",11,24,"hi",9.1,0.9,"PUNISH","COMPENSATE","CFD-WM-207-048-N.png",3.1,"COMPENSATE",4.38803940196522,4.73346320493147,2.3671875,-4.19921875,3.23002263298258,1,-246.859375,150.13671875,3.74316858605016,1,50.50390625,38.53125,4.00910755200312,1,-249.2265625,154.3359375,297.36328125,-111.60546875,48.13671875,42.73046875,-2.2,1.07677717284165,0.52288607776761,-1.15738736247049,0.109196359183054,-0.302182172716587,-1.41311462992492,0.987203663340923,-0.185982378424486,-0.291961121003976,-1.28989963420704,1.15084400650761,1.25597264872423,-1.40568035000795,-0.216435589570166,-0.0720868221549063,4
"131",11,25,"lo",5.3,4.7,"ACCEPT","REVERSE","CFD-WM-222-057-N.png",3.9,"ACCEPT",4.11079245491419,3.42619004799053,26.2578125,21.72265625,1.61353899701498,1,250,144.52734375,3.05054504005238,1,249.3046875,105.70703125,3.05905407597311,1,223.7421875,122.8046875,-0.6953125,-38.8203125,223.046875,83.984375,0.8,-1.46762932796582,1.17352702512767,0.385072718977181,0.350474414501359,0.136701406886575,1.84032852089493,0.926670618973639,1.5225376910985,0.516089596417109,1.40218962096085,0.818930675254744,-0.672020287725095,-0.521786291589797,0.950078362403894,0.390858427402824,3
"132",11,26,"md",7,3,"REVERSE","COMPENSATE","CFD-WM-234-118-N.png",3.2,"COMPENSATE",3.7431673000101,4.1492205579998,13.36328125,18.3125,3.30975249991752,1,-11.65625,-0.59765625,5.37124937295448,1,59.90234375,15.18359375,3.31361530802678,1,-25.01953125,-18.91015625,71.55859375,15.78125,46.5390625,-3.12890625,-0.2,-0.329342209183532,0.604216196187618,-0.129080641505378,0.220248963126976,0.0789640101123799,0.126999202248767,-0.639432211342057,-0.105210970032913,-0.572807730181497,-0.0137363786828324,-0.672828956128138,-0.204645671451775,0.141288422550116,-0.227090707294833,-0.586713962559012,6
"133",11,27,"lo",5.6,4.4,"ACCEPT","PUNISH","CFD-WM-205-007-N.png",2.7,"ACCEPT",3.19114857399836,4.22658576606773,46.08984375,15.10546875,6.4101848580176,1,228.953125,71.03515625,3.55083621107042,1,247.61328125,85.44921875,3.8977757190587,1,182.86328125,55.9296875,18.66015625,14.4140625,201.5234375,70.34375,1.7,-1.26675513053365,0.197565604087578,0.847810743411483,0.550763604633968,0.0246657251735318,1.70251324607011,0.133586568328734,1.50800152325414,0.272410406991875,1.16951111042788,0.114971776462745,-0.546819378191966,0.124685464333706,0.806533866895551,0.237785346117378,1
"134",11,28,"md",7.5,2.5,"REVERSE","PUNISH","CFD-WM-213-076-N.png",3,"REVERSE",2.92930284608155,2.70746762002818,22.45703125,20.7890625,2.09313277597539,1,-64.00390625,-61.13671875,5.39358857402112,1,110.3828125,26.9140625,4.0379783679964,1,-86.4609375,-81.92578125,174.38671875,88.05078125,87.92578125,6.125,-0.5,0.00544811987008378,0.441555959347602,-0.283326649650145,0.312089269337083,0.120894719797191,-0.215774089868413,-1.29273382805805,0.328624819927309,-0.431703101210425,-0.363454514580881,-1.3361621894992,0.460498373462474,1.01892079386951,0.0489263398759283,-0.482867991893141,5
"135",11,29,"md",7.5,2.5,"ACCEPT","COMPENSATE","CFD-WM-253-119-N.png",2.9,"COMPENSATE",1.79129110195208,3.88522483699489,35.78125,17.12109375,2.59849838702939,1,-174.33984375,-54.6328125,3.85307900502812,1,122.72265625,13.87890625,4.58518232300412,1,-210.12109375,-71.75390625,297.0625,68.51171875,86.94140625,-3.2421875,-0.4,0.00544811987008378,0.360225840927594,-0.231911313601889,0.4466542540805,0.0587922964627469,-0.938255577006825,-1.22254753357927,0.434675060620983,-0.588501684918872,-1.06731534668238,-1.2290880672764,1.2540270442774,0.781640802445285,0.0423613284661094,-0.587985188033604,2
"136",11,30,"md",7.6,2.4,"PUNISH","REVERSE","CFD-WM-256-138-N.png",4,"REVERSE",2.10553939302918,3.18830911291298,18.1875,21.3828125,1.68882333196234,1,-190,-17.78125,4.62875127897132,1,30.8984375,7.3203125,3.6276643879246,1,-208.1875,-39.1640625,220.8984375,25.1015625,12.7109375,-14.0625,-1.6,0.0724061856808066,1.25485714354768,-0.848895346180959,0.268970087770225,0.130947508238975,-1.04079853112202,-0.824867352130136,-0.354474356278727,-0.667394349601666,-1.05630953084733,-0.886031461398962,0.761359570195264,0.254473160562552,-0.452697845425912,-0.70940913853781,5
"137",11,31,"md",7.5,2.5,"PUNISH","ACCEPT","CFD-WM-202-107-N.png",3.9,"PUNISH",2.70044018095359,3.02510086994153,35.73046875,23.53515625,1.57323756301776,1,-198.390625,-21.52734375,2.79424752795603,1,-11.53125,-48.33203125,3.82347607600968,1,-234.12109375,-45.0625,186.859375,-26.8046875,-47.26171875,-71.8671875,-1.4,0.00544811987008378,1.17352702512767,-0.746064674084447,0.446141400136887,0.167388866340443,-1.09574047810118,-0.865292971592689,-0.719120672965869,-1.33683079613875,-1.20392086686533,-0.94812129417793,0.541177789030442,-0.375870007379297,-0.852668560405874,-1.35808481346966,1
"138",11,32,"lo",6,4,"ACCEPT","COMPENSATE","CFD-WM-237-052-N.png",3.1,"COMPENSATE",2.69117337395437,2.89576863101684,29.8515625,29.4921875,2.5683608930558,1,173.08203125,59.34375,4.17305830807891,1,250,179.58203125,5.1941080999095,1,143.23046875,29.8515625,76.91796875,120.23828125,220.1484375,150.08984375,0.9,-0.998922867290762,0.52288607776761,0.436488055025437,0.386768693587828,0.268247434588608,1.3366684287317,0.007419853989402,1.52851329820312,1.40472454250466,0.943925236766386,-0.159539298790491,-0.169978537671865,1.40980186730726,0.930748051030538,1.13268424486949,2
"139",11,33,"hi",9.3,0.699999999999999,"PUNISH","COMPENSATE","CFD-WM-219-008-N.png",2.4,"COMPENSATE",3.87668614799622,2.87965674593579,5.12890625,2.078125,1.35916849400382,1,-249.4765625,166.9609375,3.34526121104136,1,20.66796875,178.5078125,4.27449114399496,1,-254.60546875,164.8828125,270.14453125,11.546875,15.5390625,176.4296875,-1.7,1.2106933044631,-0.0464247511724454,-0.900310682229216,0.137087723654938,-0.195900389651143,-1.4302520156214,1.16876064251216,-0.442396350699978,1.39180287318496,-1.32051581280273,1.26186556180775,1.07990808008107,0.0898666891027222,-0.433836463438972,1.42826608539291,4
"140",11,34,"lo",6.1,3.9,"PUNISH","ACCEPT","CFD-WM-221-091-N.png",3.6,"ACCEPT",2.51949781097937,6.42510580399539,17.46484375,12.83984375,1.70901190594304,1,-0.171875,-15.109375,6.3176128390478,1,79.328125,19.046875,4.12961605307646,1,-17.63671875,-27.94921875,79.5,34.15625,61.86328125,6.20703125,0.3,-0.931964801480039,0.929536669867649,0.127996038735901,0.261671781649576,-0.013693599143803,0.20219907381242,-0.796034063587502,0.0617367498055288,-0.526336708519029,0.028285827232821,-0.767978540929814,-0.153276660537375,0.364432180978657,-0.124890152688802,-0.481947449308091,1
"141",11,35,"md",7.9,2.1,"REVERSE","ACCEPT","CFD-WM-201-063-N.png",2.2,"REVERSE",3.10286632296629,4.41599284799304,-0.24609375,-0.296875,4.10257200605702,1,-149.98828125,-102.9375,3.61913116893265,1,132.31640625,50.5703125,4.30796117591672,1,-149.7421875,-102.640625,282.3046875,153.5078125,132.5625,50.8671875,-0.1,0.273280383112976,-0.209084988012461,-0.0776653054571218,0.0828041062386543,-0.236111543418281,-0.778801155466754,-1.74382303960005,0.517125010334076,-0.147144448846519,-0.723644851000767,-1.55421674792758,1.15856608843155,1.81382299624771,0.346618345352123,0.0192222352098084,3
"142",11,36,"lo",5.9,4.1,"COMPENSATE","ACCEPT","CFD-WM-206-045-N.png",2.5,"COMPENSATE",3.44093150401022,3.80088282900397,27.80859375,13.00390625,4.31109343701974,1,222.79296875,45.765625,4.19127757300157,1,245.98046875,155.85546875,2.39441852702294,1,194.984375,32.76171875,23.1875,110.08984375,218.171875,142.8515625,1.6,-1.06588093310148,0.0349053672475626,0.796395407363227,0.366136184933237,-0.0109158549690995,1.66217644421437,-0.139107208838369,1.49396891780622,1.11932010814892,1.23850312363225,-0.128905573346563,-0.517534241128616,1.28656048031803,0.917565924945743,1.05145732057913,2
"143",11,37,"hi",9.3,0.699999999999999,"COMPENSATE","REVERSE","CFD-WM-210-057-N.png",2.5,"REVERSE",3.2700788739603,2.22281577100512,35.62890625,34.17578125,3.03928263799753,1,-244.58203125,149.23046875,3.89234238793142,1,129.85546875,204.56640625,4.56433292094152,1,-280.2109375,115.0546875,374.4375,55.3359375,94.2265625,170.390625,-1.8,1.2106933044631,0.0349053672475626,-0.951726018277471,0.445115692249661,0.347545417099788,-1.39820254655023,0.977423951437574,0.495975389682916,1.70525907693655,-1.46625949522448,0.737350391656418,1.75452747132729,0.621635722262575,0.0909476232252853,1.36049661698875,6
"144",11,38,"hi",8.7,1.3,"ACCEPT","COMPENSATE","CFD-WM-228-065-N.png",2.5,"COMPENSATE",3.26230921701062,2.64710378297605,22.8515625,12.9453125,1.7625260760542,1,-205.24609375,88.6640625,4.3722633010475,1,208.87109375,137.44140625,4.31524900405202,1,-228.09765625,75.71875,414.1171875,48.77734375,186.01953125,124.49609375,-1.2,0.80894490959876,0.0349053672475626,-0.643234001987936,0.316073749975924,-0.011907906460065,-1.14063019735091,0.323827257207253,1.1750460667173,0.897819202065124,-1.16963608299129,0.323281109481452,2.01119565276776,0.541988959847285,0.703134937190902,0.845474958333912,2
"145",11,39,"hi",9,1,"REVERSE","PUNISH","CFD-WM-252-224-N.png",3.1,"REVERSE",2.65839645499364,2.35343510098755,26.484375,29.12109375,1.5884376760805,1,-180.81640625,188.8046875,4.48407546302769,1,125.8046875,171.4296875,3.74699814897031,1,-207.30078125,159.68359375,306.62109375,-17.375,99.3203125,142.30859375,-2.1,1.00981910703093,0.52288607776761,-1.10597202642224,0.352762532095941,0.261964441812493,-0.980664212058708,1.40448542252738,0.461162442674578,1.30666081934028,-1.05126241934318,1.20713604695423,1.31585683754229,-0.261357032709548,0.124918952107841,1.04536420537333,5
"146",11,40,"hi",8.8,1.2,"COMPENSATE","REVERSE","CFD-WM-244-003-N.png",3,"REVERSE",2.63522670906968,2.50727555796038,23.97265625,22.75,1.98692871094681,1,-220.05859375,9.46484375,4.4627670480404,1,12.6796875,42.21484375,3.50867945607752,1,-244.03125,-13.28515625,232.73828125,32.75,-11.29296875,19.46484375,-1.8,0.875902975409484,0.441555959347602,-0.951726018277471,0.327395987038768,0.154095376361505,-1.23762268475546,-0.530843686070382,-0.511048690750172,-0.24765154220953,-1.2603284522664,-0.613617459968063,0.83794563614782,0.347354852527493,-0.612785127621696,-0.333170233419544,6
"147",11,41,"hi",9.1,0.9,"COMPENSATE","ACCEPT","CFD-WM-203-023-N.png",2.2,"COMPENSATE",3.87568779999856,5.18478778505232,0.50390625,14.5546875,2.73928887897637,1,-244.859375,120.21875,3.19038844003808,1,-8.9921875,179.3515625,5.6793537249323,1,-245.36328125,105.6640625,235.8671875,59.1328125,-9.49609375,164.796875,-1.3,1.07677717284165,-0.209084988012461,-0.694649338036192,0.0903785644827869,0.0153404411584556,-1.4000185978703,0.664346708738535,-0.697299635786101,1.40195225708698,-1.26791023650832,0.638500088344738,0.858184975912913,0.667744509080717,-0.600801376635518,1.29772437976059,2
"148",11,42,"hi",9.1,0.9,"ACCEPT","PUNISH","CFD-WM-225-127-N.png",3,"PUNISH",2.9230600890005,3.22739631403238,26.859375,34.88671875,1.25621573696844,1,-241.06640625,185.93359375,4.15433411404956,1,10.09375,218.546875,4.60429328901228,1,-267.92578125,151.046875,251.16015625,32.61328125,-16.765625,183.66015625,-2.1,1.07677717284165,0.441555959347602,-1.10597202642224,0.356549761218007,0.359582308523503,-1.37518217770421,1.37350228352323,-0.533272577847105,1.87342872964633,-1.39633365522198,1.11622172889179,0.957107591618706,0.345694556705852,-0.64928346486438,1.50940533896088,1
"149",11,43,"lo",5.9,4.1,"PUNISH","COMPENSATE","CFD-WM-215-041-N.png",2.7,"COMPENSATE",1.83944235695526,5.40859704196919,14.38671875,15.13671875,2.34808034007438,1,219.3984375,13.0546875,4.15845575800631,1,186.46484375,91.1953125,3.82295296504162,1,205.01171875,-2.08203125,-32.93359375,78.140625,172.078125,76.05859375,1.4,-1.06588093310148,0.197565604087578,0.693564735266715,0.230584942605949,0.0251948193020468,1.63994899918416,-0.492104223832545,0.982483806312456,0.341529590880136,1.29557772817484,-0.495687896782581,-0.880553709799146,0.898573065312282,0.610156660517713,0.301916479542523,4
"150",11,44,"md",7.6,2.4,"ACCEPT","COMPENSATE","CFD-WM-208-068-N.png",2.6,"COMPENSATE",1.97804381605238,5.34514215204399,21.7578125,20.26953125,1.64804896607529,1,-113.51171875,-71.24609375,5.61158157000318,1,122.27734375,81.3359375,3.15441835101228,1,-135.26953125,-91.515625,235.7890625,152.58203125,100.51953125,61.06640625,-0.2,0.0724061856808066,0.11623548566757,-0.129080641505378,0.305027665036564,0.112098529910629,-0.539952039595533,-1.40182820049714,0.430847986407916,0.222932160469552,-0.641267987023256,-1.43710956663321,0.857679624108541,1.80258042168403,0.132916803309485,0.13367636328435,2
"151",11,45,"md",7.2,2.8,"ACCEPT","COMPENSATE","CFD-WM-243-107-N.png",2,"COMPENSATE",2.99282556609251,5.24075170210563,-1.29296875,-0.7421875,3.68378594296519,1,-173.76953125,27.78125,3.4356437670067,1,69.06640625,-4.10546875,2.99723956303205,1,-172.4765625,28.5234375,242.8359375,-31.88671875,70.359375,-3.36328125,0.8,-0.195426077562085,-0.371745224852477,0.385072718977181,0.0722314249395527,-0.243651134749619,-0.934521161616249,-0.333183905403116,-0.0264538112271652,-0.804833923274788,-0.853046564455319,-0.173519790939397,0.903262356862884,-0.437585574920864,-0.0682278518302456,-0.589344084230583,2
"152",11,46,"lo",5.7,4.3,"REVERSE","COMPENSATE","CFD-WM-204-031-N.png",2.3,"COMPENSATE",4.14049468399025,3.53415933495853,9.421875,11.6015625,1.96098329301458,1,247.359375,158.3984375,5.93162676098291,1,250,205.59375,4.73600636399351,1,237.9375,146.796875,2.640625,47.1953125,240.578125,193.9921875,2,-1.19979706472293,-0.127754869592453,1.00205675155625,0.180443607041925,-0.0346589539862084,1.82303766607281,1.07635922659775,1.52851329820312,1.71761689159502,1.4829878729701,1.07148415401528,-0.650441765678416,0.522776965339726,1.06699808941686,1.62534986931598,6
"153",11,47,"lo",6.1,3.9,"REVERSE","COMPENSATE","CFD-WM-240-125-N.png",3.6,"COMPENSATE",3.08185172406957,4.40828598896042,14.1328125,14.23828125,1.43629625998437,1,-16.35546875,-61.59765625,4.30721959099174,1,5.0078125,29.25,4.37099950702395,1,-30.48828125,-75.8359375,21.36328125,90.84765625,-9.125,15.01171875,0.3,-0.931964801480039,0.929536669867649,0.127996038735901,0.228020672887883,0.00998336310724158,0.0962286425579259,-1.29770799187096,-0.576981793859502,-0.403604343926143,-0.0448639386203534,-1.272057521087,-0.529334205760699,1.05288570267794,-0.598326471540547,-0.383142545179398,6
"154",11,48,"lo",6,4,"REVERSE","PUNISH","CFD-WM-220-068-N.png",1.8,"REVERSE",2.76457893103361,3.11559963994659,6.24609375,-0.80078125,2.31382648996077,1,190.16015625,40.39453125,3.63708189793397,1,103.4375,165.7734375,2.97472135699354,1,183.9140625,41.1953125,-86.72265625,125.37890625,97.19140625,166.57421875,2.2,-0.998922867290762,-0.534405461692492,1.10488742365276,0.148370510414427,-0.244643186240584,1.44849626494813,-0.197068863437962,0.268935890534036,1.23862235688603,1.17549204873016,-0.0401294482010066,-1.22848842710917,1.47222899020096,0.110720812352478,1.31766946910334,5
"155",11,49,"md",7.3,2.7,"COMPENSATE","PUNISH","CFD-WM-248-036-N.png",3,"COMPENSATE",2.08664080698509,3.74169744900428,17.015625,15.0625,1.83102092298213,1,-69.95703125,-98.43359375,5.04187986196484,1,136.09765625,-11.35546875,3.48642752808519,1,-86.97265625,-113.49609375,206.0546875,87.078125,119.08203125,-26.41796875,-0.3,-0.128468011751362,0.441555959347602,-0.180495977553633,0.257134996763767,0.0239382207468237,-0.254755247781,-1.69521955759763,0.549621570318716,-0.892043444210621,-0.366367164832178,-1.66848671169762,0.66534272736461,1.00710897502412,0.256714161323214,-0.848060385990807,4
"156",11,50,"lo",5.8,4.2,"ACCEPT","REVERSE","CFD-WM-231-112-N.png",4,"ACCEPT",3.38870402995963,2.62693627097178,26.69921875,24.359375,2.91998649796005,1,234.65234375,82.49609375,4.14844432892278,1,250,62,2.88429630803876,1,207.953125,58.13671875,15.34765625,-20.49609375,223.30078125,37.640625,0.2,-1.13283899891221,1.25485714354768,0.0765807026876458,0.354932298780458,0.181343723980025,1.73983182178826,0.257266200761611,1.52851329820312,-0.00965788728496212,1.31231990862695,0.138204064886663,-0.568246294697333,-0.299259214466436,0.951771718521506,-0.129204297789195,3
"157",11,51,"hi",9.5,0.5,"ACCEPT","COMPENSATE","CFD-WM-211-054-N.png",3.3,"COMPENSATE",3.35189719405025,4.86475957289804,19.34375,16.87109375,1.54814377392177,1,-243.171875,185.34375,2.94212940894067,1,66.0546875,169.7890625,5.30971050006337,1,-262.515625,168.47265625,309.2265625,-15.5546875,46.7109375,152.91796875,-2.8,1.34460943608455,0.685546314607625,-1.46587937876003,0.280647377563262,0.0545595434346272,-1.38896882082421,1.36713703999993,-0.0523369184050133,1.28692590619747,-1.36553960485522,1.29965400970435,1.33271032021809,-0.239251379769986,-0.225944435461372,1.16442104637312,2
"158",11,52,"lo",5.6,4.4,"PUNISH","REVERSE","CFD-WM-212-097-N.png",4,"REVERSE",3.48748289002106,1.97980912693311,39.51953125,33.84765625,1.14876125694718,1,238.78125,103.32421875,3.15279144106898,1,71.48828125,119.6171875,2.6942547489889,1,199.26171875,69.4765625,-167.29296875,16.29296875,31.96875,85.76953125,0.4,-1.26675513053365,1.25485714354768,0.179411374784158,0.484408194391099,0.341989928750381,1.76686796608853,0.482030958816179,-0.00563989884030932,0.683413467135054,1.26284932229767,0.257572796381591,-1.74965774295788,0.1475026726254,-0.324263296813185,0.410891187467958,5
"159",11,53,"hi",9.5,0.5,"REVERSE","PUNISH","CFD-WM-233-106-N.png",3.2,"REVERSE",2.04765746102203,5.43194038991351,28.37890625,44.91796875,1.67445211310405,1,-243.98046875,220.28125,2.14174007892143,1,195.4375,236.2890625,3.42049296502955,1,-272.359375,175.36328125,439.41796875,16.0078125,167.05859375,191.37109375,-2.7,1.34460943608455,0.604216196187618,-1.41446404271177,0.371895929223046,0.529421523776807,-1.3942635056588,1.7441617954463,1.05959599462311,2.08684771891926,-1.42156921274276,1.37218809250044,2.17485383461359,0.144039769911692,0.576680312654152,1.59593634195557,5
"160",11,54,"md",7.3,2.7,"REVERSE","COMPENSATE","CFD-WM-230-131-N.png",4.1,"COMPENSATE",3.78180607105605,4.01841591193806,38.1875,41.33984375,1.28116098989267,1,-75.3046875,-95.55078125,3.60610589699354,1,91.71484375,169.48828125,2.78551403502934,1,-113.4921875,-136.890625,167.01953125,265.0390625,53.52734375,128.1484375,-1.4,-0.128468011751362,1.33618726196769,-0.746064674084447,0.470955640947092,0.468840246061843,-0.289771786614551,-1.66410995680163,0.168189840416367,1.28330783878796,-0.517313596557771,-1.91474896899115,0.412843698310207,3.16824489051891,-0.180484336611634,0.886461021049231,6
"161",12,2,"hi",9,1,"REVERSE","ACCEPT","CFD-WM-244-003-N.png",3,"REVERSE",3.1237524420003,3.35183663499993,107.5234375,-2.3515625,2.32215697300035,1,-191.3203125,-3.08984375,4.25453153800026,1,0.26171875,-3.60546875,3.90818018899972,1,-298.84375,-0.73828125,191.58203125,-0.515625,-107.26171875,-1.25390625,-2,1.00981910703093,0.441555959347602,-1.05455669037398,1.1711985254958,-0.270899482368139,-1.04944395853308,-0.666326419076268,-0.617770347972453,-0.798819473555075,-1.57231553872589,-0.481542928255452,0.571726305604721,-0.0566188393894833,-1.25282163681389,-0.565672989186442,3
"162",12,3,"md",7.3,2.7,"COMPENSATE","REVERSE","CFD-WM-253-119-N.png",2,"COMPENSATE",3.65759760699984,3.78619857600006,1.24609375,-0.8515625,2.88287241700073,1,-49.99609375,-0.0390625,3.06044447000022,1,145.07421875,-2.57421875,3.61804763500004,1,-51.2421875,0.8125,195.0703125,-2.53515625,143.828125,-1.72265625,0.7,-0.128468011751362,-0.371745224852477,0.333657382928925,0.0978741221202097,-0.245502964199421,-0.124050709110842,-0.633404199263699,0.626767329455804,-0.786414671008167,-0.162993028583246,-0.465218647716876,0.594290263669925,-0.0811437805262936,0.42175125370894,-0.570933232529584,6
"163",12,4,"hi",9.3,0.699999999999999,"ACCEPT","REVERSE","CFD-WM-231-112-N.png",2.5,"REVERSE",2.44186443600029,3.45889339799942,-1.42578125,0.84765625,2.11351546500009,1,-216.1640625,-0.79296875,3.701168435,1,1.015625,-3.2109375,2.7202768520001,1,-214.73828125,-1.640625,217.1796875,-2.41796875,2.44140625,-4.05859375,-1.8,1.2106933044631,0.0349053672475626,-0.951726018277471,0.0708901146254875,-0.21673347096142,-1.2121212317116,-0.641539907872951,-0.611291178471384,-0.794073696823114,-1.0935959008582,-0.491041439097798,0.737304824307163,-0.07972066982203,-0.521187587475174,-0.597146778522911,3
"164",12,5,"md",8,2,"COMPENSATE","REVERSE","CFD-WM-227-099-N.png",2.5,"REVERSE",2.92757764400085,5.71607210300044,0.20703125,-0.01171875,2.77007625399983,1,-141.93359375,-1.32421875,2.59148041500066,1,57.33984375,-3.67578125,3.44618768499913,1,-142.140625,-1.3125,199.2734375,-2.3515625,57.1328125,-3.6640625,-0.5,0.340238448923699,0.0349053672475626,-0.283326649650145,0.0873803414278178,-0.231283559495582,-0.72605893262177,-0.647272842436983,-0.127233432171264,-0.799665255546909,-0.680377542687613,-0.487587435155127,0.621478190745132,-0.0789142404229472,-0.156438679741543,-0.592719407042433,6
"165",12,6,"hi",9.5,0.5,"REVERSE","PUNISH","CFD-WM-219-008-N.png",2.5,"REVERSE",4.03219654900022,3.54687641500004,0,0,1.49876336499983,1,-194.98046875,-2.54296875,3.28390053200019,1,2.25390625,-0.27734375,3.49051675999999,1,-194.98046875,-2.54296875,197.234375,2.265625,2.25390625,-0.27734375,-2,1.34460943608455,0.0349053672475626,-1.05455669037398,0.0852894753500103,-0.231085149197388,-1.07341072032055,-0.660424868789764,-0.600649226492943,-0.758785792608237,-0.981136473598218,-0.500539949940143,0.608288508651026,-0.0228436786749592,-0.522438065838949,-0.554714148888228,5
"166",12,7,"hi",9,1,"COMPENSATE","ACCEPT","CFD-WM-200-034-N.png",3,"COMPENSATE",2.74170948400024,5.20697342999938,-2.21875,2.90234375,2.05638809900029,1,-215.07421875,-1.49609375,1.87474283999927,1,157.40625,-0.546875,1.68166614000074,1,-212.85546875,-4.3984375,372.48046875,0.94921875,159.625,-3.44921875,-2,1.00981910703093,0.441555959347602,-1.05455669037398,0.0628817030444516,-0.181945532011561,-1.20498491736933,-0.64912761538417,0.732750428496617,-0.76202795691027,-1.08287912665114,-0.520071519854056,1.74186840862778,-0.0388299555861876,0.527104055856987,-0.590308462176826,2
"167",12,8,"md",7.9,2.1,"PUNISH","REVERSE","CFD-WM-221-091-N.png",2.5,"REVERSE",2.37966307499937,3.06319488300051,-2.109375,1.0546875,1.84473567900022,1,-158.17578125,-2.28515625,3.34047642699989,1,89.4453125,-1.7890625,2.63533874899986,1,-156.06640625,-3.33984375,247.62109375,0.49609375,91.5546875,-2.84375,-0.4,0.273280383112976,0.0349053672475626,-0.231911313601889,0.0639863115383876,-0.213228222360008,-0.832413036690364,-0.657642709368983,0.148685190260298,-0.776970105432681,-0.759641650671372,-0.508928245229487,0.934215154880661,-0.0443326503093404,0.073128306541491,-0.583513981191933,5
"168",12,9,"md",7.8,2.2,"ACCEPT","PUNISH","CFD-WM-257-161-N.png",2.5,"PUNISH",2.92138268600047,3.15551048199995,3.9375,-1.3671875,2.6107087320006,1,-139.53125,-2.05078125,2.5566968639996,1,35.7578125,-2.765625,2.30943775600008,1,-143.46875,-0.68359375,175.2890625,-0.71484375,31.8203125,-1.3984375,-0.3,0.206322317302253,0.0349053672475626,-0.180495977553633,0.125055381131706,-0.254233017319918,-0.710328347243659,-0.65511347353191,-0.312712248199294,-0.788717077541495,-0.687937092958154,-0.480967260931674,0.466335186802969,-0.0590381275867315,-0.325253258851173,-0.567294897550577,1
